subj;trial;block;prior;kappa;ct;delay;fix;keypressed;R;T_Angle;resp_mod;choice_x;choice_y;init_resp_angle;choiceAngle;choiceR;RT;MT;ts_b;ts_f;ts_p;ts_d;ts_r;ts_e;m_pos_x;m_pos_y;m_clock

S01;0;0;0;1;False;3000;True;;8;101.2812077072994;drag;L;-2.2960827;6.5197415;109.4;6.91;2.901852599985432;2.901945599995088;1685442110.6668842;1685442110.6868713;1685442111.4420376;1685442111.976412;1685442114.973815;1685442117.8756504;[0.0, 0.0, 0.0, 0.0, 0.0, 0.0, 0.0, 0.0, 0.0, 0.0, 0.0, 0.0, 0.0, 0.0, 0.0, 0.0, 0.0, 0.0, 0.0, 0.0, 0.0, 0.0, 0.0, 0.0, 0.0, 0.0, 0.0, 0.0, 0.0, 0.0, 0.0, 0.0, 0.0, 0.0, 0.0, 0.0, 0.0, 0.0, 0.0, 0.0, 0.0, 0.0, 0.0, 0.0, 0.0, 0.0, 0.0, 0.0, 0.0, 0.0, 0.0, 0.0, 0.0, 0.0, 0.0, 0.0, -0.0850401, -0.19842692, -0.28346702, -0.36850712, -0.48189393, -0.6236274, -0.79370767, -1.0488279, -1.2189082, -1.3606416, -1.5307219, -1.5590686, -1.6157619, -1.6724553, -1.7008021, -1.7574955, -1.8141888, -1.8425356, -1.9559225, -2.012616, -2.0409625, -2.1543493, -2.2393894, -2.2393894, -2.2677362, -2.2960827, -2.2960827, -2.2960827, -2.2960827, -2.2960827, -2.2960827, -2.2960827, -2.2960827, -2.2960827, -2.2960827, -2.2960827, -2.2960827, -2.2960827, -2.2960827, -2.2960827, -2.2960827, -2.2960827, -2.2960827, -2.2960827, -2.2960827, -2.2960827, -2.2960827, -2.2960827, -2.2960827, -2.2960827, -2.2960827, -2.2960827, -2.2960827, -2.2960827, -2.2960827, -2.2960827, -2.2960827, -2.2960827, -2.2960827, -2.2960827, -2.2960827, -2.2960827, -2.2960827, -2.2960827, -2.2960827, -2.2960827, -2.2960827, -2.2960827, -2.2960827, -2.2960827, -2.2960827, -2.2960827, -2.2960827, -2.2960827, -2.2960827, -2.2960827, -2.2960827, -2.2960827, -2.2960827, -2.2960827, -2.2960827, -2.2960827, -2.2960827, -2.2960827, -2.2960827, -2.2960827, -2.2960827, -2.2960827, -2.2960827, -2.2960827, -2.2960827, -2.2960827, -2.2960827, -2.2960827, -2.2960827, -2.2960827, -2.2960827, -2.2960827, -2.2960827, -2.2960827, -2.2960827, -2.2960827, -2.2960827, -2.2960827, -2.2960827, -2.2960827, -2.2960827, -2.2960827, -2.2960827, -2.2960827, -2.2960827, -2.2960827, -2.2960827, -2.2960827, -2.2960827, -2.2960827];[0.0, 0.0, 0.0, 0.0, 0.0, 0.0, 0.0, 0.0, 0.0, 0.0, 0.0, 0.0, 0.0, 0.0, 0.0, 0.0, 0.0, 0.0, 0.0, 0.0, 0.0, 0.0, 0.0, 0.0, 0.0, 0.0, 0.0, 0.0, 0.0, 0.0, 0.0, 0.0, 0.0, 0.0, 0.0, 0.0, 0.0, 0.0, 0.0, 0.0, 0.0, 0.0, 0.0, 0.0, 0.0, 0.0, 0.0, 0.0, 0.0, 0.0, 0.0, 0.0, 0.0, 0.0, 0.0, 0.14173351, 0.42520052, 0.76536095, 1.1905615, 1.5023751, 1.7574955, 2.1260026, 2.381123, 2.8063235, 3.0897903, 3.3449106, 3.6850712, 3.8268046, 3.9401915, 4.1953115, 4.3937387, 4.6772056, 4.932326, 5.1874466, 5.41422, 5.5843005, 5.75438, 6.0661945, 6.3496614, 6.548088, 6.7181687, 6.7465153, 6.8032084, 6.831555, 6.8599014, 6.8599014, 6.8599014, 6.8599014, 6.8599014, 6.8599014, 6.8599014, 6.8599014, 6.8599014, 6.8599014, 6.8599014, 6.8599014, 6.8599014, 6.831555, 6.831555, 6.831555, 6.831555, 6.831555, 6.831555, 6.831555, 6.831555, 6.831555, 6.831555, 6.831555, 6.8032084, 6.8032084, 6.8032084, 6.774862, 6.7465153, 6.7465153, 6.7465153, 6.7465153, 6.7465153, 6.7181687, 6.7181687, 6.7181687, 6.6898212, 6.6898212, 6.6614747, 6.633128, 6.6047816, 6.6047816, 6.5764346, 6.5764346, 6.5197415, 6.5197415, 6.5197415, 6.5197415, 6.5197415, 6.5197415, 6.5197415, 6.5197415, 6.5197415, 6.5197415, 6.5197415, 6.5197415, 6.5197415, 6.5197415, 6.5197415, 6.5197415, 6.5197415, 6.5197415, 6.5197415, 6.5197415, 6.5197415, 6.5197415, 6.5197415, 6.5197415, 6.5197415, 6.5197415, 6.5197415, 6.5197415, 6.5197415, 6.5197415, 6.5197415, 6.5197415, 6.5197415, 6.5197415, 6.5197415, 6.5197415, 6.5197415, 6.5197415, 6.5197415, 6.5197415, 6.5197415, 6.5197415, 6.5197415, 6.5197415];[0.03269269998418167, 0.049210600031074136, 0.07002759998431429, 0.0849508999963291, 0.10165249998681247, 0.1181316000293009, 0.13548130000708625, 0.15112520003458485, 0.1677553000045009, 0.18435759999556467, 0.20230990002164617, 0.2188738000113517, 0.2366084000095725, 0.25132740003755316, 0.26879290002398193, 0.2841595000354573, 0.3019647999899462, 0.3174216999905184, 0.33750520000467077, 0.34974470001179725, 0.3661238999920897, 0.3844360000221059, 0.40181090001715347, 0.4191018000128679, 0.43687259999569505, 0.4521543000009842, 0.4694345000316389, 0.4850184000097215, 0.5035785000072792, 0.5181040000170469, 0.5355338000226766, 0.5511701999930665, 0.5690668000024743, 0.5843508000252768, 0.601773900038097, 0.6177894999855198, 0.6362832000013441, 0.6511767000192776, 0.6690991999930702, 0.6837453999905847, 0.7023959000362083, 0.7165698999888264, 0.7356347999884747, 0.7504596000071615, 0.7678114000009373, 0.78218730003573, 0.8008800999959931, 0.817481999984011, 0.834978700033389, 0.8526699999929406, 0.8683125000097789, 0.8837511999881826, 0.9018812000285834, 0.9174570000031963, 0.9331619000295177, 0.952627599996049, 0.9678124000201933, 0.9846334999892861, 1.00339820003137, 1.0163542000227608, 1.0338226000312716, 1.0507399000343867, 1.069283400021959, 1.0870957000297494, 1.1018700000131503, 1.1179173000273295, 1.1353544000303373, 1.1522647999809124, 1.169007699994836, 1.184024500020314, 1.2021983999875374, 1.2195061999955215, 1.233871000004001, 1.2513205999857746, 1.268110600009095, 1.2851505000144243, 1.301579800026957, 1.317496600036975, 1.334978900034912, 1.3506145999999717, 1.366717900033109, 1.383661400002893, 1.4027759000309743, 1.4186311000376008, 1.4346221000305377, 1.4512569000362419, 1.4688727000029758, 1.4849431000184268, 1.5018274000030942, 1.516189799993299, 1.5328934999997728, 1.5495089000323787, 1.566365799983032, 1.5834811000386253, 1.6012341000023298, 1.6178920000093058, 1.6350384000106715, 1.655089300009422, 1.6682417999836616, 1.6844755000201985, 1.7014815000002272, 1.7185137000051327, 1.734857400006149, 1.7514646000345238, 1.7672772000078112, 1.7839231999823824, 1.8019308000220917, 1.8160056000342593, 1.8365822000196204, 1.8505603999947198, 1.868226999999024, 1.882738700020127, 1.900823500007391, 1.9175596000277437, 1.935169100004714, 1.9502470000297762, 1.9700998000334948, 1.9853481000172906, 2.0024794000200927, 2.018331600003876, 2.033869000035338, 2.050644300004933, 2.067321299982723, 2.083836000005249, 2.1041081000003032, 2.1170562999905087, 2.135727000015322, 2.15091999998549, 2.168747699994128, 2.1847669000271708, 2.2015757000190206, 2.216771000006702, 2.23461700003827, 2.250678299984429, 2.267970699991565, 2.285115799983032, 2.3015983999939635, 2.3181816000142135, 2.3353607000317425, 2.3527584000257775, 2.366591600002721, 2.3833437000284903, 2.40117150003789, 2.418374600005336, 2.4349656000267714, 2.451180200034287, 2.4687411999912, 2.4838143000379205, 2.5017001000232995, 2.5174483000300825, 2.5337988000246696, 2.552117699990049, 2.569526400009636, 2.5847585999872535, 2.602614200033713, 2.6176657000323758, 2.6362653999822214, 2.651371999992989, 2.6696630000369623, 2.68499520001933, 2.701711700006854, 2.7182704000151716, 2.735957299999427, 2.7513890999834985, 2.7683510000351816, 2.78514069999801, 2.8039501000312157, 2.8172378999879584, 2.835635600029491, 2.850783700007014, 2.86971870000707, 2.883808600017801]

S01;1;0;0;1;False;1000;False;;8;72.31803140335856;drag;L;nan;nan;nan;nan;0.0026401999639347196;0.0027661999920383096;1685442118.6022527;1685442118.6194696;1685442119.372879;1685442119.8752844;1685442120.8413494;1685442120.8443584;[];[];[]

S01;1;0;0;1;False;1000;False;;8;97.65523243116654;drag;L;nan;nan;nan;nan;0.0022075999877415597;0.0022892000270076096;1685442121.6347282;1685442121.651753;1685442122.4083233;1685442122.8915274;1685442122.8925242;1685442122.894529;[];[];[]

S01;1;0;0;1;False;1000;False;;8;108.73830109202274;drag;L;nan;nan;nan;nan;0.0021135000279173255;0.002229599980637431;1685442123.440609;1685442123.4525588;1685442124.2079952;1685442124.693653;1685442124.6941862;1685442124.696382;[];[];[]

S01;1;0;0;1;False;1000;True;;8;40.62520789910039;drag;L;5.1874466;4.7905927;42.72;7.06;2.9988877999712713;2.9990071000065655;1685442125.258323;1685442125.268995;1685442126.0246463;1685442126.5263982;1685442127.5061874;1685442130.5050957;[0.0, 0.0, 0.0, 0.0, 0.0, 0.0, 0.0, 0.0, 0.0, 0.0, 0.0, 0.0, 0.0, 0.0, 0.0, 0.0, 0.0, 0.0, 0.0, 0.0, 0.0, 0.0, 0.0, 0.0, 0.0, 0.0, 0.0, 0.0, 0.0, 0.0, 0.0, 0.0, 0.0, 0.0, 0.0, 0.0, 0.0, 0.0, 0.0, 0.0, 0.0, 0.0, 0.0, 0.0, 0.0, 0.0, 0.0, 0.1133868, 0.28346702, 0.53858733, 0.7086675, 1.0488279, 1.1905615, 1.3606416, 1.5590686, 1.7008021, 1.8708823, 2.182696, 2.3527763, 2.5512033, 2.7779768, 2.9764037, 3.146484, 3.4016042, 3.5716846, 3.770111, 3.911845, 4.025232, 4.2236586, 4.3937387, 4.5921655, 4.7905927, 4.875633, 4.932326, 4.960673, 5.017366, 5.045713, 5.1024065, 5.130753, 5.130753, 5.1591, 5.1591, 5.1591, 5.1591, 5.1874466, 5.1874466, 5.1874466, 5.1874466, 5.1874466, 5.1874466, 5.1874466, 5.1874466, 5.1874466, 5.1874466, 5.1874466, 5.1874466, 5.1874466, 5.1874466, 5.1874466, 5.1874466, 5.1874466, 5.1874466, 5.1874466, 5.1874466, 5.1874466, 5.1874466, 5.1874466, 5.1874466, 5.1874466, 5.1874466, 5.1874466, 5.1874466, 5.1874466, 5.1874466, 5.1874466, 5.1874466, 5.1874466, 5.1874466, 5.1874466, 5.1874466, 5.1874466, 5.1874466, 5.1874466, 5.1874466, 5.1874466, 5.1874466, 5.1874466, 5.1874466, 5.1874466, 5.1874466, 5.1874466, 5.1874466, 5.1874466, 5.1874466, 5.1874466, 5.1874466, 5.1874466, 5.1874466, 5.1874466, 5.1874466, 5.1874466, 5.1874466, 5.1874466, 5.1874466, 5.1874466, 5.1874466, 5.1874466, 5.1874466, 5.1874466, 5.1874466, 5.1874466, 5.1874466, 5.1874466, 5.1874466, 5.1874466, 5.1874466, 5.1874466, 5.1874466, 5.1874466, 5.1874466, 5.1874466, 5.1874466, 5.1874466, 5.1874466, 5.1874466, 5.1874466, 5.1874466, 5.1874466, 5.1874466, 5.1874466, 5.1874466, 5.1874466, 5.1874466, 5.1874466, 5.1874466, 5.1874466, 5.1874466, 5.1874466, 5.1874466, 5.1874466];[0.0, 0.0, 0.0, 0.0, 0.0, 0.0, 0.0, 0.0, 0.0, 0.0, 0.0, 0.0, 0.0, 0.0, 0.0, 0.0, 0.0, 0.0, 0.0, 0.0, 0.0, 0.0, 0.0, 0.0, 0.0, 0.0, 0.0, 0.0, 0.0, 0.0, 0.0, 0.0, 0.0, 0.0, 0.0, 0.0, 0.0, 0.0, 0.0, 0.0, 0.0, 0.0, 0.0, 0.0, 0.0, 0.0, 0.0, 0.1700802, 0.28346702, 0.4535472, 0.53858733, 0.73701423, 0.85040104, 0.93544114, 1.1055214, 1.2189082, 1.3606416, 1.6441087, 1.8425356, 2.012616, 2.2677362, 2.4378164, 2.6078966, 2.8913634, 3.0330973, 3.2315238, 3.3732576, 3.514991, 3.7417645, 3.968538, 4.166965, 4.3937387, 4.478779, 4.563819, 4.5921655, 4.648859, 4.7055526, 4.733899, 4.762246, 4.762246, 4.7905927, 4.7905927, 4.7905927, 4.7905927, 4.7905927, 4.7905927, 4.7905927, 4.7905927, 4.7905927, 4.7905927, 4.7905927, 4.7905927, 4.7905927, 4.7905927, 4.7905927, 4.7905927, 4.7905927, 4.7905927, 4.7905927, 4.7905927, 4.7905927, 4.7905927, 4.7905927, 4.7905927, 4.7905927, 4.7905927, 4.7905927, 4.7905927, 4.7905927, 4.7905927, 4.7905927, 4.7905927, 4.7905927, 4.7905927, 4.7905927, 4.7905927, 4.7905927, 4.7905927, 4.7905927, 4.7905927, 4.7905927, 4.7905927, 4.7905927, 4.7905927, 4.7905927, 4.7905927, 4.7905927, 4.7905927, 4.7905927, 4.7905927, 4.7905927, 4.7905927, 4.7905927, 4.7905927, 4.7905927, 4.7905927, 4.7905927, 4.7905927, 4.7905927, 4.7905927, 4.7905927, 4.7905927, 4.7905927, 4.7905927, 4.7905927, 4.7905927, 4.7905927, 4.7905927, 4.7905927, 4.7905927, 4.7905927, 4.7905927, 4.7905927, 4.7905927, 4.7905927, 4.7905927, 4.7905927, 4.7905927, 4.7905927, 4.7905927, 4.7905927, 4.7905927, 4.7905927, 4.7905927, 4.7905927, 4.7905927, 4.7905927, 4.7905927, 4.7905927, 4.7905927, 4.7905927, 4.7905927, 4.7905927, 4.7905927, 4.7905927, 4.7905927, 4.7905927, 4.7905927, 4.7905927, 4.7905927];[0.0037918000016361475, 0.01873070001602173, 0.03478490002453327, 0.05159440002171323, 0.067930500023067, 0.08460480003850535, 0.10333030001493171, 0.11878250003792346, 0.13488650001818314, 0.15225260000443086, 0.16848870000103489, 0.18556740001076832, 0.20078390004346147, 0.21912040002644062, 0.23506690002977848, 0.252780300041195, 0.2674135999986902, 0.2854574000230059, 0.3005115000414662, 0.3187216999940574, 0.33519280003383756, 0.35236580000491813, 0.36892790003912523, 0.3859920999966562, 0.4016605000360869, 0.41896390001056716, 0.4341975999996066, 0.45277830003760755, 0.4677388000418432, 0.48628050001570955, 0.5021385000436567, 0.5203333999961615, 0.5342696000006981, 0.5530716000357643, 0.5685146000469103, 0.5868010999984108, 0.602400400035549, 0.6195046000066213, 0.6356437000213191, 0.6517991000437178, 0.6675660000182688, 0.684045200003311, 0.7007995000458322, 0.7195250000222586, 0.7339887000271119, 0.7516999000217766, 0.7676065000123344, 0.7850734000094235, 0.8014225999941118, 0.8189105000346899, 0.8350458000204526, 0.8544960000435822, 0.8673550999956205, 0.8863321000244468, 0.9034257000312209, 0.9196371000143699, 0.935652400017716, 0.9549125000485219, 0.9668529000482522, 0.9857146000140347, 1.00179410004057, 1.0189068000181578, 1.034760600014124, 1.0511354000191204, 1.0681472000433132, 1.0853693000390194, 1.1009921000222676, 1.1187894000322558, 1.1353751000133343, 1.1512827000115067, 1.168368200014811, 1.1838793000206351, 1.2009508000337519, 1.218454300018493, 1.2340601000469178, 1.2528429999947548, 1.268841000040993, 1.2868245000136085, 1.3008267999975942, 1.319102500041481, 1.334851699997671, 1.3513729000114836, 1.3673360000248067, 1.385175800009165, 1.4008789000217803, 1.418236400000751, 1.4343279000022449, 1.4514763000188395, 1.467413000005763, 1.4848501000087708, 1.5001595000503585, 1.5183545000036247, 1.5336657000007108, 1.551608000008855, 1.5677142000058666, 1.5846458000014536, 1.601527700026054, 1.6190692000091076, 1.6329080000286922, 1.6525762000237592, 1.6678937000106089, 1.6854120999923907, 1.70123310002964, 1.7187403000425547, 1.7341223999974318, 1.751770100032445, 1.7690508000086993, 1.7858553000260144, 1.8021785000455566, 1.818469499994535, 1.8358298999955878, 1.8530671000480652, 1.8675889000296593, 1.8867310000350699, 1.9014228000305593, 1.9189838000456803, 1.9349606000469066, 1.952030700049363, 1.9683054000488482, 1.9860740000149235, 2.001081600028556, 2.0198362999944948, 2.034705500002019, 2.0523855999927036, 2.0698986000497825, 2.0856831000419334, 2.1019009000156075, 2.1189363000448793, 2.13564720004797, 2.1523725000442937, 2.1688024000031874, 2.186775400012266, 2.2012110000359826, 2.2186772000277415, 2.2352053000358865, 2.2526652000378817, 2.2677158000296913, 2.286216400039848, 2.301985300029628, 2.3197275000275113, 2.335240700049326, 2.353209200024139, 2.368413500022143, 2.3853894000058062, 2.402025400020648, 2.419134900032077, 2.4341074000112712, 2.452496800047811, 2.4673514000023715, 2.486239799996838, 2.5013321000151336, 2.518955800042022, 2.5356299999984913, 2.553147300030105, 2.56913820002228, 2.586313700012397, 2.601013300009072, 2.618715200049337, 2.6348884000326507, 2.6522332000313327, 2.668278700031806, 2.684081999992486, 2.7005480999941938, 2.7177547000464983, 2.7346594000118785, 2.7514271000400186, 2.7671220000484027, 2.785486900014803, 2.8012465000501834, 2.8185299000469968, 2.8347161000128835, 2.852175600011833, 2.8682589000090957, 2.886571300041396, 2.9015196000109427, 2.9190395000041462, 2.9340257000294514, 2.9526690000202507, 2.9678570000105537, 2.9858924000291154]

S01;2;0;0;1;False;3000;True;;8;-25.76264137757951;drag;L;5.924461;-3.3449106;-29.45;6.8;1.9663730999454856;1.9664790999959223;1685442131.3583958;1685442131.368157;1685442132.1238005;1685442132.6267715;1685442135.623304;1685442137.5904994;[0.0, 0.0, 0.0, 0.0, 0.0, 0.0, 0.0, 0.0, 0.0, 0.0, 0.0, 0.0, 0.0, 0.0, 0.0, 0.0, 0.0, 0.0, 0.0, 0.0, 0.0, 0.0, 0.0, 0.0, 0.0, 0.0, 0.0, 0.0, 0.0, 0.0, 0.0, 0.0, 0.0, 0.0, 0.0, 0.0, 0.0, 0.0, 0.0, 0.0, 0.0850401, 1.3039483, 1.9275757, 2.3527763, 3.0047503, 3.4016042, 3.713418, 4.252005, 4.620512, 5.130753, 5.4425664, 5.66934, 6.037847, 6.292968, 6.5764346, 6.944942, 7.228409, 7.285102, 7.4551826, 7.5118756, 7.540222, 7.596916, 7.596916, 7.6252627, 7.6252627, 7.6252627, 7.6252627, 7.6252627, 7.6252627, 7.596916, 7.540222, 7.4551826, 7.3701425, 7.2567554, 7.143369, 7.0583286, 6.944942, 6.888248, 6.774862, 6.7181687, 6.6614747, 6.633128, 6.6047816, 6.5764346, 6.5764346, 6.5197415, 6.491395, 6.434701, 6.4063544, 6.3496614, 6.292968, 6.2362742, 6.2079277, 6.151234, 6.094541, 6.0661945, 6.0095005, 6.0095005, 5.981154, 5.981154, 5.9528074, 5.9528074, 5.9528074, 5.9528074, 5.924461, 5.924461, 5.924461, 5.924461, 5.924461, 5.924461, 5.924461, 5.924461, 5.924461, 5.924461, 5.924461, 5.924461, 5.924461, 5.924461];[0.0, 0.0, 0.0, 0.0, 0.0, 0.0, 0.0, 0.0, 0.0, 0.0, 0.0, 0.0, 0.0, 0.0, 0.0, 0.0, 0.0, 0.0, 0.0, 0.0, 0.0, 0.0, 0.0, 0.0, 0.0, 0.0, 0.0, 0.0, 0.0, 0.0, 0.0, 0.0, 0.0, 0.0, 0.0, 0.0, 0.0, 0.0, 0.0, 0.0, -0.0283467, -0.4535472, -0.59528077, -0.7086675, -0.8220543, -0.9070944, -0.9921345, -1.1905615, -1.3606416, -1.6724553, -1.8425356, -1.9275757, -2.0976558, -2.1543493, -2.211043, -2.3244295, -2.4094696, -2.466163, -2.4945097, -2.5228565, -2.57955, -2.57955, -2.6078966, -2.6078966, -2.6362433, -2.6362433, -2.6929367, -2.7212832, -2.8063235, -2.83467, -2.8913634, -3.0047503, -3.0614438, -3.1181371, -3.1748307, -3.2031772, -3.2598708, -3.2882173, -3.316564, -3.3449106, -3.3732576, -3.3732576, -3.4016042, -3.4016042, -3.4016042, -3.4016042, -3.4016042, -3.4016042, -3.4016042, -3.4016042, -3.4016042, -3.4016042, -3.4016042, -3.4016042, -3.4016042, -3.4016042, -3.4016042, -3.3732576, -3.3732576, -3.3732576, -3.3732576, -3.3732576, -3.3732576, -3.3449106, -3.3449106, -3.3449106, -3.3449106, -3.3449106, -3.3449106, -3.3449106, -3.3449106, -3.3449106, -3.3449106, -3.3449106, -3.3449106, -3.3449106, -3.3449106, -3.3449106];[0.0040778000256977975, 0.018446900008711964, 0.03515449998667464, 0.05165009998017922, 0.0683329000021331, 0.08368769998196512, 0.10105469997506589, 0.117124899988994, 0.13667929999064654, 0.15098580002086237, 0.1675567000056617, 0.184033100027591, 0.20063390000723302, 0.21735489997081459, 0.2356893999967724, 0.25071970000863075, 0.2689585000043735, 0.28417469997657463, 0.3018556999741122, 0.3172673999797553, 0.33555439999327064, 0.3510919000254944, 0.3689443999901414, 0.38363190001109615, 0.40230800001882017, 0.4178764999960549, 0.435489299998153, 0.4514861999778077, 0.46847159997560084, 0.4837433000211604, 0.5015032999799587, 0.5176700999727473, 0.5334393000230193, 0.5509763999725692, 0.5677847000188194, 0.5848345999838784, 0.6011914000264369, 0.6179281999939121, 0.6352851000265218, 0.6507983999908902, 0.6695632999762893, 0.6866566999815404, 0.7007785000023432, 0.7163144000223838, 0.73416079999879, 0.7500328000169247, 0.7688781999750063, 0.7843194999732077, 0.800865099998191, 0.8211297999951057, 0.8357175000128336, 0.8494465000112541, 0.8676692000008188, 0.8843328999937512, 0.9014001999748871, 0.9185826000175439, 0.9393379000248387, 0.9491224000230432, 0.9662497999961488, 0.9840636000153609, 1.0026267999783158, 1.0178485999931581, 1.0380359999835491, 1.04961230000481, 1.0670749000273645, 1.084665699978359, 1.1009089999715798, 1.118082200002391, 1.1353051000041887, 1.1498767000157386, 1.169060799991712, 1.1843500999966636, 1.2013644999824464, 1.2175393999787048, 1.2348641999997199, 1.2515479999710806, 1.2682857000036165, 1.2833497999818064, 1.3047498000087216, 1.3179312000283971, 1.3341352000134066, 1.3504327000118792, 1.3673206000239588, 1.3851873999810778, 1.4007054999819957, 1.4163332000025548, 1.4345159999793395, 1.4503394999774173, 1.4677229999797419, 1.4838219999801368, 1.5014721999759786, 1.5169031000114046, 1.5334830000065267, 1.5503350999788381, 1.5684555000043474, 1.5830228999839164, 1.600657399976626, 1.6174142999807373, 1.6341158999712206, 1.650279399997089, 1.6671015999745578, 1.6829542000195943, 1.70028699998511, 1.7177014999906532, 1.7365623000077903, 1.7495966000133194, 1.7676699999719858, 1.783018100017216, 1.8012123000225984, 1.81620689999545, 1.8345284999813884, 1.8508898000000045, 1.8687702000024728, 1.8843815000145696, 1.901568099972792, 1.9172632999834605, 1.934368300018832, 1.9505904000252485]

S01;3;0;0;1;False;1000;True;;8;152.9463407412157;drag;L;-6.4630475;3.6283777;150.69;7.41;2.198960200010333;2.1990302999620326;1685442138.366776;1685442138.3851323;1685442139.1405945;1685442139.640128;1685442140.621915;1685442142.8215265;[0.0, 0.0, 0.0, 0.0, 0.0, 0.0, 0.0, 0.0, 0.0, 0.0, 0.0, 0.0, 0.0, 0.0, 0.0, 0.0, 0.0, 0.0, 0.0, 0.0, 0.0, 0.0, 0.0, 0.0, 0.0, 0.0, 0.0, 0.0, 0.0, 0.0, 0.0, 0.0, 0.0, 0.0, 0.0, 0.0, 0.0, 0.0, 0.0, 0.0, 0.0, 0.0, 0.0, 0.0, 0.0, 0.0, -0.3118137, -0.9070944, -1.1905615, -1.5023751, -1.9275757, -2.1543493, -2.4378164, -2.5512033, -2.6929367, -2.9197102, -3.0614438, -3.2031772, -3.2882173, -3.3449106, -3.4582977, -3.5433376, -3.6850712, -3.8551514, -3.996885, -4.166965, -4.3937387, -4.5354724, -4.847286, -4.9890194, -5.1591, -5.3858733, -5.4709134, -5.5843005, -5.66934, -5.7260337, -5.782727, -5.896114, -6.0095005, -6.1228876, -6.2079277, -6.292968, -6.321315, -6.3496614, -6.378008, -6.434701, -6.4630475, -6.491395, -6.5197415, -6.548088, -6.548088, -6.5764346, -6.5764346, -6.5764346, -6.5764346, -6.5764346, -6.5764346, -6.5764346, -6.5764346, -6.5764346, -6.5764346, -6.548088, -6.5197415, -6.5197415, -6.491395, -6.491395, -6.491395, -6.491395, -6.4630475, -6.4630475, -6.4630475, -6.4630475, -6.4630475, -6.4630475, -6.4630475, -6.4630475, -6.4630475, -6.4630475, -6.4630475, -6.4630475, -6.4630475, -6.4630475, -6.4630475, -6.4630475, -6.4630475, -6.4630475, -6.4630475, -6.4630475, -6.4630475, -6.4630475, -6.4630475, -6.4630475];[0.0, 0.0, 0.0, 0.0, 0.0, 0.0, 0.0, 0.0, 0.0, 0.0, 0.0, 0.0, 0.0, 0.0, 0.0, 0.0, 0.0, 0.0, 0.0, 0.0, 0.0, 0.0, 0.0, 0.0, 0.0, 0.0, 0.0, 0.0, 0.0, 0.0, 0.0, 0.0, 0.0, 0.0, 0.0, 0.0, 0.0, 0.0, 0.0, 0.0, 0.0, 0.0, 0.0, 0.0, 0.0, 0.0, 0.14173351, 0.4535472, 0.59528077, 0.76536095, 0.9921345, 1.0771747, 1.2189082, 1.2756016, 1.3606416, 1.4740285, 1.5307219, 1.5874153, 1.6157619, 1.6441087, 1.6724553, 1.7008021, 1.7291489, 1.8141888, 1.8141888, 1.8708823, 1.9275757, 1.984269, 2.0693092, 2.1260026, 2.211043, 2.2960827, 2.3244295, 2.3527763, 2.3527763, 2.381123, 2.4094696, 2.4378164, 2.466163, 2.5512033, 2.6078966, 2.6362433, 2.66459, 2.6929367, 2.7212832, 2.7779768, 2.8913634, 3.0897903, 3.2031772, 3.2598708, 3.3449106, 3.3732576, 3.4016042, 3.4299507, 3.4582977, 3.4582977, 3.4582977, 3.4866443, 3.4866443, 3.514991, 3.5716846, 3.6000311, 3.6283777, 3.6283777, 3.6283777, 3.6283777, 3.6283777, 3.6283777, 3.6283777, 3.6283777, 3.6283777, 3.6283777, 3.6283777, 3.6283777, 3.6283777, 3.6283777, 3.6283777, 3.6283777, 3.6283777, 3.6283777, 3.6283777, 3.6283777, 3.6283777, 3.6283777, 3.6283777, 3.6283777, 3.6283777, 3.6283777, 3.6283777, 3.6283777, 3.6283777, 3.6283777];[0.003379700006917119, 0.019458199967630208, 0.035360599984414876, 0.052839099953416735, 0.06981869996525347, 0.08713929995428771, 0.10173880000365898, 0.12065919995075092, 0.13551289995666593, 0.15316289995098487, 0.1695763999596238, 0.18584140000166371, 0.19999739999184385, 0.21937839995371178, 0.23488619999261573, 0.2520710999961011, 0.26859509997302666, 0.28572319995146245, 0.3017204999923706, 0.32053929998073727, 0.33591349999187514, 0.35344129998702556, 0.3692663999972865, 0.3867451999685727, 0.40263649995904416, 0.4205073000048287, 0.4362553999526426, 0.45282249996671453, 0.4677478999947198, 0.4865362999844365, 0.5025946999667212, 0.5205848999903537, 0.5352155999862589, 0.5523929999908432, 0.5697150999912992, 0.5876448999624699, 0.6035375999636017, 0.6188600999885239, 0.6349935999605805, 0.6531952999648638, 0.6684478999814019, 0.6872387999901548, 0.7019535999861546, 0.7210309999645688, 0.7344664999982342, 0.7524957999703474, 0.7689778999774717, 0.7877152999863029, 0.801712199987378, 0.8185750999837182, 0.8342878999537788, 0.8527900999761187, 0.8678830999997444, 0.8862300000037067, 0.9023442000034265, 0.9202483999542892, 0.9354844999616034, 0.9530509999603964, 0.9673942999797873, 0.9842689999495633, 1.002361299993936, 1.0194258999545127, 1.035460899991449, 1.0521481999894604, 1.070981299970299, 1.0847930999589153, 1.100412999978289, 1.1189357999828644, 1.1371076999930665, 1.1534824999980628, 1.169189499982167, 1.1849535999936052, 1.2021751999855042, 1.2204041999648325, 1.233474699954968, 1.252200199989602, 1.2681533999857493, 1.2852513999678195, 1.3009795999969356, 1.3199820999871008, 1.336759699974209, 1.3540730999666266, 1.3674794999533333, 1.3872881999704987, 1.4013757999637164, 1.419997599965427, 1.4364874999737367, 1.4534033999661915, 1.4694310000049882, 1.4862046999624, 1.500648999994155, 1.5196728999726474, 1.5344313999521546, 1.553028499998618, 1.571573699999135, 1.5857650999678299, 1.6020102999755181, 1.6202009999542497, 1.6347646999638528, 1.65151319996221, 1.6689735999680124, 1.6855878999922425, 1.7020903999800794, 1.7196038999827579, 1.7358848999720067, 1.7516139000072144, 1.7674717999761924, 1.7858195999870077, 1.801425699959509, 1.8196628000005148, 1.836213400005363, 1.8510389999719337, 1.8674529999843799, 1.8862758000032045, 1.901582399965264, 1.9193103999714367, 1.9352745999931358, 1.95312759996159, 1.9674358000047505, 1.9845949999871664, 2.0011245000059716, 2.019501000002492, 2.036055499978829, 2.052864699973725, 2.068468199984636, 2.0864495999994688, 2.1019356999895535, 2.1195893999538384, 2.1346317999996245, 2.151928399980534, 2.1684241999755614, 2.185138700006064]

S01;4;0;0;1;False;1000;True;;8;99.33047095757601;drag;L;-3.0330973;6.633128;114.57;7.29;3.1531279999762774;3.1531692999997176;1685442143.5503728;1685442143.5685434;1685442144.3235922;1685442144.8209329;1685442145.8026571;1685442148.9564123;[0.0, 0.0, 0.0, 0.0, 0.0, 0.0, 0.0, 0.0, 0.0, 0.0, 0.0, 0.0, 0.0, 0.0, 0.0, 0.0, 0.0, 0.0, 0.0, 0.0, 0.0, 0.0, 0.0, 0.0, 0.0, 0.0, 0.0, 0.0, 0.0, 0.0, 0.0, 0.0, 0.0, 0.0, 0.0, 0.0, 0.0, 0.0, 0.0, 0.0, 0.0, 0.0, 0.0, 0.0, 0.0, 0.0, 0.0, 0.0, 0.0, 0.0, 0.0, 0.0, 0.0, 0.0, 0.0, 0.0, 0.0, 0.0, 0.0, 0.0, 0.0, 0.0, 0.0, 0.0, 0.0, 0.0, 0.0, -0.0566934, -0.3401604, -0.5102406, -0.6236274, -0.7086675, -0.7086675, -0.73701423, -0.76536095, -0.79370767, -0.85040104, -0.9070944, -0.9921345, -1.0488279, -1.0771747, -1.1338681, -1.1622148, -1.2189082, -1.2756016, -1.3606416, -1.4740285, -1.5307219, -1.5874153, -1.6441087, -1.7008021, -1.7008021, -1.7574955, -1.8425356, -1.8708823, -1.9275757, -1.984269, -2.0409625, -2.0693092, -2.1260026, -2.1543493, -2.1543493, -2.2393894, -2.2677362, -2.2960827, -2.4094696, -2.466163, -2.57955, -2.6362433, -2.6929367, -2.7496302, -2.7779768, -2.8063235, -2.83467, -2.83467, -2.8630168, -2.8913634, -2.9197102, -2.9764037, -3.0047503, -3.0614438, -3.0897903, -3.1181371, -3.146484, -3.146484, -3.146484, -3.146484, -3.146484, -3.146484, -3.146484, -3.146484, -3.146484, -3.146484, -3.146484, -3.146484, -3.146484, -3.146484, -3.146484, -3.146484, -3.146484, -3.146484, -3.146484, -3.146484, -3.1181371, -3.1181371, -3.1181371, -3.1181371, -3.1181371, -3.0897903, -3.0897903, -3.0897903, -3.0897903, -3.0897903, -3.0897903, -3.0897903, -3.0897903, -3.0897903, -3.0897903, -3.0897903, -3.0897903, -3.0897903, -3.0897903, -3.0897903, -3.0897903, -3.0897903, -3.0897903, -3.0897903, -3.0897903, -3.0897903, -3.0897903, -3.0897903, -3.0897903, -3.0897903, -3.0614438, -3.0330973, -3.0330973, -3.0330973, -3.0330973, -3.0330973, -3.0330973, -3.0330973, -3.0330973, -3.0330973, -3.0330973, -3.0330973, -3.0330973, -3.0330973, -3.0330973, -3.0330973];[0.0, 0.0, 0.0, 0.0, 0.0, 0.0, 0.0, 0.0, 0.0, 0.0, 0.0, 0.0, 0.0, 0.0, 0.0, 0.0, 0.0, 0.0, 0.0, 0.0, 0.0, 0.0, 0.0, 0.0, 0.0, 0.0, 0.0, 0.0, 0.0, 0.0, 0.0, 0.0, 0.0, 0.0, 0.0, 0.0, 0.0, 0.0, 0.0, 0.0, 0.0, 0.0, 0.0, 0.0, 0.0, 0.0, 0.0, 0.0, 0.0, 0.0, 0.0, 0.0, 0.0, 0.0, 0.0, 0.0, 0.0, 0.0, 0.0, 0.0, 0.0, 0.0, 0.0, 0.0, 0.0, 0.0, 0.0, 0.39685383, 1.417335, 1.9559225, 2.2677362, 2.5228565, 2.57955, 2.66459, 2.6929367, 2.8063235, 2.9197102, 3.0897903, 3.3732576, 3.5433376, 3.6567245, 3.798458, 3.8834982, 3.996885, 4.2236586, 4.422086, 4.733899, 4.875633, 5.017366, 5.1874466, 5.300833, 5.3575263, 5.4709134, 5.5559535, 5.66934, 5.782727, 5.8677673, 5.981154, 6.037847, 6.094541, 6.1228876, 6.1795807, 6.2362742, 6.292968, 6.3496614, 6.4630475, 6.5197415, 6.633128, 6.6614747, 6.6898212, 6.7465153, 6.774862, 6.774862, 6.8032084, 6.8032084, 6.831555, 6.8599014, 6.888248, 6.9165955, 6.9732885, 7.0016356, 7.029982, 7.029982, 7.0583286, 7.0583286, 7.0583286, 7.0583286, 7.0583286, 7.0583286, 7.0583286, 7.029982, 7.029982, 7.0016356, 7.0016356, 7.0016356, 6.944942, 6.944942, 6.944942, 6.9165955, 6.9165955, 6.8599014, 6.831555, 6.831555, 6.8032084, 6.8032084, 6.774862, 6.774862, 6.7465153, 6.7465153, 6.7181687, 6.6898212, 6.6898212, 6.6898212, 6.6898212, 6.6898212, 6.6898212, 6.6898212, 6.6898212, 6.6898212, 6.6898212, 6.6898212, 6.6898212, 6.6898212, 6.6898212, 6.6614747, 6.6614747, 6.633128, 6.633128, 6.633128, 6.633128, 6.633128, 6.633128, 6.633128, 6.633128, 6.633128, 6.633128, 6.633128, 6.633128, 6.633128, 6.633128, 6.633128, 6.633128, 6.633128, 6.633128, 6.633128, 6.633128, 6.633128, 6.633128, 6.633128];[0.0032316999859176576, 0.019175699970219284, 0.03533210000023246, 0.05274059996008873, 0.06824229995254427, 0.0856084999977611, 0.10231709998333827, 0.11941059998935089, 0.13524189998861402, 0.15192309999838471, 0.16784119996009395, 0.18569600000046194, 0.2018114000093192, 0.2186608999618329, 0.2350828999769874, 0.2519813999533653, 0.26797579997219145, 0.2854041999671608, 0.301236399973277, 0.31854799995198846, 0.3350699999718927, 0.3520888999919407, 0.3682340999948792, 0.3851051999954507, 0.4017296999809332, 0.4185437999549322, 0.43549800000619143, 0.45251599996117875, 0.46962129999883473, 0.4866141999955289, 0.5025224999990314, 0.5196095999563113, 0.535586699959822, 0.5525190999615006, 0.5682356999604963, 0.5869504999718629, 0.6029605999938212, 0.6213940999587066, 0.6378369999583811, 0.6559608999523334, 0.6709437999525107, 0.688162199978251, 0.7047511999844573, 0.7225236999802291, 0.7373247999930754, 0.7537553999572992, 0.7711620999616571, 0.7885734000010416, 0.8046717999968678, 0.8222852000035346, 0.8357619000016712, 0.8533718999824487, 0.8703657999867573, 0.8881550999940373, 0.9044425999745727, 0.921983799955342, 0.9380090999766253, 0.9556380999856628, 0.9713257999974303, 0.9887780999997631, 1.003549499961082, 1.0203924999805167, 1.0366277999710292, 1.0530039999866858, 1.070820399967488, 1.0879293999751098, 1.1029994999989867, 1.1208648000028916, 1.1369790000026114, 1.1550275000045076, 1.1703393000061624, 1.1872593999723904, 1.2033923999988474, 1.2213370999670587, 1.237927399983164, 1.255756200000178, 1.27025279996451, 1.286875499994494, 1.3045721999951638, 1.3206679999711923, 1.3370671999873593, 1.3556615999550559, 1.3711990999872796, 1.387948999996297, 1.4027721000020392, 1.420966400008183, 1.4385249000042677, 1.4539552999776788, 1.4712054999545217, 1.4872517999610864, 1.5034988999832422, 1.521158799994737, 1.5368646999704652, 1.5546459999750368, 1.5701538999564946, 1.5866402999963611, 1.6042149999993853, 1.6210633000009693, 1.6366926999762654, 1.6555283999769017, 1.6694216000032611, 1.688259799964726, 1.7072964999824762, 1.7201281999587081, 1.7378325999598019, 1.752933599986136, 1.7699424999882467, 1.790690399997402, 1.8040481999632902, 1.8210283999796957, 1.8390943999984302, 1.8540627000038512, 1.8705700999707915, 1.8880843999795616, 1.9036126999999397, 1.9224748999695294, 1.9387297999928705, 1.9541750999633223, 1.9709372000070289, 1.9867572999792174, 2.0038684000028297, 2.0201836999622174, 2.036740099953022, 2.0537588999723084, 2.0698303999961354, 2.087262299959548, 2.1031774999573827, 2.1226045999792404, 2.1376087999669835, 2.155206699972041, 2.1706057999981567, 2.188155199983157, 2.203924699977506, 2.220958099991549, 2.237407799984794, 2.2550002000061795, 2.2708076999988407, 2.286321699968539, 2.303119699994568, 2.3203287000069395, 2.3370631999569014, 2.3539125999668613, 2.3705099999788217, 2.38705179997487, 2.4034949999768287, 2.4215467000030912, 2.437466899980791, 2.4570378999924287, 2.4700464999768883, 2.4886368999723345, 2.504489199956879, 2.520790799986571, 2.5377210999722593, 2.554566100006923, 2.5711926000076346, 2.5883805999765173, 2.603559499955736, 2.6207529999664985, 2.636586199980229, 2.65349369996693, 2.6706234999583103, 2.68822499999078, 2.703916599974036, 2.7206216999911703, 2.7370284000062384, 2.754091599956155, 2.769791600003373, 2.7874518999597058, 2.8035764999804087, 2.8201946999761276, 2.8366916999802925, 2.854202999966219, 2.870029699988663, 2.888430899998639, 2.904035399958957, 2.9195081999641843, 2.9370019999914803, 2.954658299975563, 2.971564999956172, 2.9874008999904618, 3.00396100000944, 3.0224870999809355, 3.036903899977915, 3.055032400006894, 3.071458899998106, 3.088122099987231, 3.10431049996987, 3.1209634999977425, 3.1370283999713138]

S01;5;0;0;1;False;3000;True;;8;-80.92527224041257;drag;L;2.8063235;-6.292968;-65.97;6.89;2.414827600005083;2.414917499991134;1685442149.7417371;1685442149.7511103;1685442150.5056496;1685442151.0080874;1685442154.006496;1685442156.4218838;[0.0, 0.0, 0.0, 0.0, 0.0, 0.0, 0.0, 0.0, 0.0, 0.0, 0.0, 0.0, 0.0, 0.0, 0.0, 0.0, 0.0, 0.0, 0.0, 0.0, 0.0, 0.0, 0.0, 0.0, 0.0, 0.0, 0.0, 0.0, 0.0, 0.0, 0.0, 0.0, 0.0, 0.0, 0.0, 0.0, 0.0, 0.0, 0.0, 0.0, 0.0, 0.0, 0.0, 0.0, 0.0, 0.0, 0.0, 0.0, 0.0, 0.0, 0.0566934, 0.0566934, 0.1133868, 0.1700802, 0.2551203, 0.3118137, 0.3401604, 0.42520052, 0.42520052, 0.48189393, 0.53858733, 0.6236274, 0.65197414, 0.76536095, 0.85040104, 0.93544114, 1.0488279, 1.1338681, 1.2756016, 1.3606416, 1.5307219, 1.6441087, 1.7291489, 1.8141888, 1.9275757, 1.984269, 2.0693092, 2.0976558, 2.1260026, 2.1543493, 2.182696, 2.211043, 2.2677362, 2.2960827, 2.3527763, 2.381123, 2.4094696, 2.466163, 2.466163, 2.5228565, 2.57955, 2.6078966, 2.6929367, 2.7212832, 2.7496302, 2.7779768, 2.7779768, 2.8063235, 2.8063235, 2.8063235, 2.8063235, 2.8063235, 2.8063235, 2.8063235, 2.8063235, 2.8063235, 2.8063235, 2.8063235, 2.8063235, 2.8063235, 2.8063235, 2.8063235, 2.8063235, 2.8063235, 2.8063235, 2.8063235, 2.8063235, 2.8063235, 2.8063235, 2.8063235, 2.8063235, 2.8063235, 2.8063235, 2.8063235, 2.8063235, 2.8063235, 2.8063235, 2.8063235, 2.8063235, 2.8063235, 2.8063235, 2.8063235, 2.8063235, 2.8063235, 2.8063235, 2.8063235, 2.8063235, 2.8063235, 2.8063235, 2.8063235, 2.8063235, 2.8063235, 2.8063235, 2.8063235, 2.8063235];[0.0, 0.0, 0.0, 0.0, 0.0, 0.0, 0.0, 0.0, 0.0, 0.0, 0.0, 0.0, 0.0, 0.0, 0.0, 0.0, 0.0, 0.0, 0.0, 0.0, 0.0, 0.0, 0.0, 0.0, 0.0, 0.0, 0.0, 0.0, 0.0, 0.0, 0.0, 0.0, 0.0, 0.0, 0.0, 0.0, 0.0, 0.0, 0.0, 0.0, 0.0, 0.0, 0.0, 0.0, 0.0, 0.0, 0.0, -0.14173351, -0.28346702, -0.42520052, -0.7086675, -0.93544114, -1.2472548, -1.417335, -1.7291489, -1.899229, -2.0693092, -2.3244295, -2.4945097, -2.7212832, -2.9764037, -3.2031772, -3.3732576, -3.6850712, -3.8834982, -4.081925, -4.3937387, -4.5354724, -4.762246, -4.9039793, -5.0740595, -5.215793, -5.3575263, -5.4992604, -5.697687, -5.811074, -5.924461, -5.981154, -6.037847, -6.094541, -6.1228876, -6.1228876, -6.1795807, -6.1795807, -6.2079277, -6.2079277, -6.2362742, -6.2362742, -6.2362742, -6.292968, -6.321315, -6.3496614, -6.4063544, -6.4063544, -6.434701, -6.434701, -6.434701, -6.434701, -6.434701, -6.434701, -6.434701, -6.434701, -6.434701, -6.434701, -6.434701, -6.434701, -6.434701, -6.434701, -6.434701, -6.434701, -6.434701, -6.4063544, -6.4063544, -6.378008, -6.378008, -6.3496614, -6.3496614, -6.321315, -6.321315, -6.321315, -6.321315, -6.321315, -6.292968, -6.292968, -6.292968, -6.292968, -6.292968, -6.292968, -6.292968, -6.292968, -6.292968, -6.292968, -6.292968, -6.292968, -6.292968, -6.292968, -6.292968, -6.292968, -6.292968, -6.292968, -6.292968, -6.292968, -6.292968, -6.292968, -6.292968];[0.004655700002331287, 0.016451000003144145, 0.03478230000473559, 0.050125000008847564, 0.06752869999036193, 0.08379529998637736, 0.10058959998423234, 0.11564889998408034, 0.13499350001802668, 0.15041280002333224, 0.16731390001950786, 0.18355519999749959, 0.1999787000240758, 0.2170670999912545, 0.235292199999094, 0.24987800000235438, 0.26783660001819953, 0.28293240000493824, 0.3006591000012122, 0.31643439998151734, 0.3330672000302002, 0.35000410000793636, 0.367608200001996, 0.3826685000094585, 0.4008019000175409, 0.4162631999934092, 0.4346318999887444, 0.4501215000054799, 0.4678225999814458, 0.48385050002252683, 0.5006505000055768, 0.5173844000091776, 0.5338918000343256, 0.550251999986358, 0.5675449999980628, 0.5829467999865301, 0.6013047000160441, 0.6163073999923654, 0.634105900011491, 0.6494978999835439, 0.6661625999840908, 0.6839509999845177, 0.7010724000283517, 0.7162084000301547, 0.7326001999899745, 0.7487300999928266, 0.7670026000123471, 0.782429700018838, 0.8013215999817476, 0.8162450999952853, 0.8326915000216104, 0.8492924000020139, 0.8664163000066765, 0.8837225000024773, 0.9007052999804728, 0.9155207999865524, 0.9341079000150785, 0.9516009000362828, 0.9668282000347972, 0.9821970000048168, 1.0004661999992095, 1.0174124999903142, 1.032918900018558, 1.0492793000303209, 1.06664550001733, 1.0826630999799818, 1.099279200017918, 1.1169913000194356, 1.1341927000321448, 1.1489196000038646, 1.1694886999903247, 1.1824863000074401, 1.1995069999829866, 1.216422000026796, 1.234500400023535, 1.2496007999870926, 1.268131099990569, 1.2829054000321776, 1.300874800013844, 1.3158861999982037, 1.3329168999916874, 1.3494783000205643, 1.3687320000026375, 1.3831269000074826, 1.4002873999997973, 1.4170753000071272, 1.43703860003734, 1.451026400027331, 1.4671228000079282, 1.4841967999818735, 1.500173199980054, 1.5170673999818973, 1.5336322000366636, 1.5506998000200838, 1.5694476999924518, 1.5826464000274427, 1.6004762999946252, 1.6182771000312641, 1.6333499000174925, 1.650842500035651, 1.666857699980028, 1.682878800027538, 1.7015365000115708, 1.7164985000272281, 1.7336756000295281, 1.7490441999980249, 1.7668797000078484, 1.7824180999887176, 1.800481399986893, 1.8171114000142552, 1.833059000025969, 1.8505750999902375, 1.8665559000219218, 1.8858982999809086, 1.9006996999960393, 1.9167386000044644, 1.9334585000178777, 1.951331200019922, 1.967589300009422, 1.983522400027141, 2.000807899981737, 2.0161792000290006, 2.033501200028695, 2.0498579000122845, 2.0670763999805786, 2.0831968000275083, 2.100599900004454, 2.1161060000304133, 2.13397680001799, 2.149051900021732, 2.167345000023488, 2.1833042000071146, 2.1997824999853037, 2.2173196999938227, 2.233970600005705, 2.2508753000292927, 2.2670326000079513, 2.2837300000246614, 2.301765499985777, 2.317215999995824, 2.334291299979668, 2.348881900019478, 2.366331299999729, 2.3824883000343107, 2.399977100023534]

S01;6;0;0;1;False;3000;True;;8;-31.666824580387797;drag;L;5.75438;-3.9401915;-34.4;6.97;1.7157933000125922;1.7158802999765612;1685442157.1254802;1685442157.134034;1685442157.889591;1685442158.3908987;1685442161.3892093;1685442163.1056912;[0.0, 0.0, 0.0, 0.0, 0.0, 0.0, 0.0, 0.0, 0.0, 0.0, 0.0, 0.0, 0.0, 0.0, 0.0, 0.0, 0.0, 0.0, 0.0, 0.0, 0.0, 0.0, 0.0, 0.0, 0.0, 0.0, 0.0, 0.0, 0.0, 0.0, 0.0, 0.0, 0.0, 0.0, 0.0, 0.0, 0.0, 0.0, 0.0, 0.0, 0.3118137, 0.9921345, 1.6157619, 1.8708823, 2.1260026, 2.3527763, 2.6929367, 2.8630168, 3.2031772, 3.4016042, 3.6567245, 3.770111, 3.8834982, 4.081925, 4.1953115, 4.3937387, 4.478779, 4.563819, 4.7055526, 4.7905927, 4.875633, 4.9890194, 5.1024065, 5.1874466, 5.2724867, 5.32918, 5.41422, 5.4992604, 5.5559535, 5.612647, 5.7260337, 5.782727, 5.8677673, 5.896114, 5.924461, 5.9528074, 5.9528074, 5.9528074, 5.9528074, 5.9528074, 5.9528074, 5.924461, 5.896114, 5.8677673, 5.8677673, 5.8394203, 5.811074, 5.811074, 5.811074, 5.782727, 5.782727, 5.75438, 5.75438, 5.75438, 5.75438, 5.75438, 5.75438, 5.75438, 5.75438, 5.75438, 5.75438, 5.75438, 5.75438];[0.0, 0.0, 0.0, 0.0, 0.0, 0.0, 0.0, 0.0, 0.0, 0.0, 0.0, 0.0, 0.0, 0.0, 0.0, 0.0, 0.0, 0.0, 0.0, 0.0, 0.0, 0.0, 0.0, 0.0, 0.0, 0.0, 0.0, 0.0, 0.0, 0.0, 0.0, 0.0, 0.0, 0.0, 0.0, 0.0, 0.0, 0.0, 0.0, 0.0, -0.1133868, -0.48189393, -0.79370767, -0.96378785, -1.1338681, -1.332295, -1.5874153, -1.7008021, -1.8708823, -1.9559225, -2.012616, -2.0693092, -2.0976558, -2.1260026, -2.1260026, -2.211043, -2.211043, -2.2677362, -2.3527763, -2.4094696, -2.5228565, -2.6362433, -2.7212832, -2.7779768, -2.8913634, -2.9764037, -3.0330973, -3.1181371, -3.1748307, -3.2031772, -3.316564, -3.3732576, -3.4299507, -3.4582977, -3.514991, -3.5433376, -3.5433376, -3.5433376, -3.5716846, -3.6283777, -3.6567245, -3.6850712, -3.7417645, -3.798458, -3.8268046, -3.8268046, -3.8834982, -3.911845, -3.911845, -3.9401915, -3.9401915, -3.9401915, -3.9401915, -3.9401915, -3.9401915, -3.9401915, -3.9401915, -3.9401915, -3.9401915, -3.9401915, -3.9401915, -3.9401915, -3.9401915];[0.003696999978274107, 0.01674649998312816, 0.035022999974898994, 0.05142989999148995, 0.06786499998997897, 0.08405379997566342, 0.10147619998315349, 0.11675370001466945, 0.13524749997304752, 0.15059450000990182, 0.16798670002026483, 0.18397790001472458, 0.20073679997585714, 0.21742930001346394, 0.23485860001528636, 0.25097190000815317, 0.2669567000120878, 0.2837402999866754, 0.3019563999841921, 0.31707079999614507, 0.33514500001911074, 0.35101569996913895, 0.36694719997467473, 0.38571539998520166, 0.4015685999765992, 0.41694069997174665, 0.43463979999069124, 0.4497208999819122, 0.4676420000032522, 0.4836776999873109, 0.5015776999644004, 0.5169617999927141, 0.5344785000197589, 0.550790200009942, 0.5690305000171065, 0.5828466999810189, 0.6022973000071943, 0.6178580999840051, 0.6349630000186153, 0.6504799000103958, 0.6678370999870822, 0.68258700001752, 0.7020234999945387, 0.7170743999886326, 0.734084099996835, 0.7499352999730036, 0.7669915999867953, 0.7834491999819875, 0.8004030999727547, 0.8160386999952607, 0.8361763000139035, 0.8492464000009932, 0.866808399965521, 0.8859095000079833, 0.9002719999989495, 0.9193558999686502, 0.9334685999783687, 0.9499810999841429, 0.9696319000213407, 0.9827589999767952, 1.0012779000098817, 1.0188464999664575, 1.0339561000000685, 1.0504846000112593, 1.0665945999789983, 1.0825948999845423, 1.1015905999811366, 1.1163161000004038, 1.1332369999727234, 1.1498149000108242, 1.166756299964618, 1.1832813000073656, 1.200356399989687, 1.2164372999686748, 1.2336044000112452, 1.2500271999742836, 1.2670298999873921, 1.283366699994076, 1.300120199972298, 1.316503099980764, 1.3338769999681972, 1.3503912999876775, 1.369110899977386, 1.3821205999702215, 1.401125599979423, 1.4162909999722615, 1.4339879999752156, 1.449100699974224, 1.467140999971889, 1.4835620999801904, 1.5012974999845028, 1.5170474000042304, 1.533133499964606, 1.549632299982477, 1.567545700003393, 1.5851874999934807, 1.5998426000005566, 1.617358699964825, 1.6351772000198252, 1.650923100009095, 1.6675012999912724, 1.6838251000153832, 1.7009342999663204]

S01;7;0;0;1;False;1000;True;;8;-29.592298261859895;drag;L;5.66934;-3.4016042;-30.96;6.61;1.9839688999927603;1.9840644999640062;1685442163.906996;1685442163.9171135;1685442164.6722324;1685442165.174029;1685442166.155396;1685442168.138894;[0.0, 0.0, 0.0, 0.0, 0.0, 0.0, 0.0, 0.0, 0.0, 0.0, 0.0, 0.0, 0.0, 0.0, 0.0, 0.0, 0.0, 0.0, 0.0, 0.0, 0.0, 0.0, 0.0, 0.0, 0.0, 0.0, 0.0, 0.0, 0.0, 0.0, 0.0, 0.0, 0.0, 0.0, 0.0, 0.0, 0.0, 0.0, 0.0, 0.0, 0.0, 0.0, 0.0, 0.0, 0.0, 0.0, 0.0, 0.0, 0.0, 0.0, 0.1133868, 0.53858733, 0.85040104, 1.0771747, 1.2189082, 1.332295, 1.5590686, 1.7291489, 1.8708823, 2.0976558, 2.2393894, 2.5228565, 2.7212832, 3.0047503, 3.2031772, 3.4016042, 3.5433376, 3.6283777, 3.713418, 3.798458, 3.8834982, 3.968538, 4.0535784, 4.337045, 4.6772056, 5.130753, 5.2724867, 5.3858733, 5.4425664, 5.4709134, 5.527607, 5.527607, 5.5559535, 5.5843005, 5.612647, 5.612647, 5.612647, 5.6409936, 5.66934, 5.66934, 5.66934, 5.66934, 5.66934, 5.66934, 5.66934, 5.66934, 5.66934, 5.66934, 5.66934, 5.66934, 5.66934, 5.66934, 5.66934, 5.66934, 5.66934, 5.66934, 5.66934, 5.66934, 5.66934, 5.66934, 5.66934, 5.66934, 5.66934, 5.66934, 5.66934, 5.66934, 5.66934, 5.66934, 5.66934];[0.0, 0.0, 0.0, 0.0, 0.0, 0.0, 0.0, 0.0, 0.0, 0.0, 0.0, 0.0, 0.0, 0.0, 0.0, 0.0, 0.0, 0.0, 0.0, 0.0, 0.0, 0.0, 0.0, 0.0, 0.0, 0.0, 0.0, 0.0, 0.0, 0.0, 0.0, 0.0, 0.0, 0.0, 0.0, 0.0, 0.0, 0.0, 0.0, 0.0, 0.0, 0.0, 0.0, 0.0, 0.0, 0.0, 0.0, 0.0, 0.0, 0.0, -0.0283467, -0.1700802, -0.3401604, -0.48189393, -0.56693405, -0.65197414, -0.79370767, -0.87874776, -0.96378785, -1.0771747, -1.1338681, -1.2472548, -1.3606416, -1.5023751, -1.6441087, -1.7291489, -1.7574955, -1.8141888, -1.8425356, -1.8708823, -1.8708823, -1.9275757, -1.9275757, -2.0693092, -2.2677362, -2.6078966, -2.7212832, -2.8063235, -2.83467, -2.8630168, -2.8913634, -2.9197102, -2.9764037, -3.0047503, -3.0047503, -3.0330973, -3.0614438, -3.0897903, -3.1181371, -3.1748307, -3.2031772, -3.2598708, -3.316564, -3.3449106, -3.3449106, -3.3732576, -3.4016042, -3.4016042, -3.4016042, -3.4016042, -3.4016042, -3.4016042, -3.4016042, -3.4016042, -3.4016042, -3.4016042, -3.4016042, -3.4016042, -3.4016042, -3.4016042, -3.4016042, -3.4016042, -3.4016042, -3.4016042, -3.4016042, -3.4016042, -3.4016042, -3.4016042, -3.4016042];[0.0051383000100031495, 0.018500100006349385, 0.03456309996545315, 0.05164969997713342, 0.06774059997405857, 0.0858007000060752, 0.10268789995461702, 0.11967220000224188, 0.1352805999922566, 0.15229349996661767, 0.16857229999732226, 0.185594399983529, 0.20031960000051185, 0.21934219996910542, 0.2355855999630876, 0.25229159998707473, 0.26829879998695105, 0.28648329997668043, 0.30284139997093007, 0.3189133999985643, 0.3343507999670692, 0.353295499982778, 0.36809269996592775, 0.3859956999658607, 0.40114599996013567, 0.41871989995706826, 0.43488149996846914, 0.45200150000164285, 0.46804869995685294, 0.4854756999993697, 0.5010493999579921, 0.5188385999645106, 0.5345239999587648, 0.5527974999858998, 0.5683283999678679, 0.5854444999713451, 0.600812999997288, 0.6187443999806419, 0.6344986999756657, 0.6517964999657124, 0.668258199992124, 0.6852972999913618, 0.7012380000087433, 0.7176171999890357, 0.7348180999979377, 0.7514431999879889, 0.7678170999861322, 0.7859891999978572, 0.8007634999812581, 0.8188919000094756, 0.8354589999653399, 0.8512876000022516, 0.8680689999600872, 0.8861999000073411, 0.9000782999792136, 0.9191817999817431, 0.9355329999816604, 0.9503258999902755, 0.967379699985031, 0.9841560999630019, 0.9999252000125125, 1.0198591999942437, 1.0330634999554604, 1.0517502999864519, 1.0669652000069618, 1.084229799977038, 1.1051765999873169, 1.1180719999829307, 1.133153599977959, 1.1517442999756895, 1.1668104999698699, 1.1851861999602988, 1.2006650000112131, 1.2181582999764942, 1.233426499995403, 1.2508447999716736, 1.2674359999946319, 1.287111499987077, 1.3000060999765992, 1.3171612999867648, 1.3358296999940649, 1.3505852000089362, 1.3675528999883682, 1.384149299992714, 1.4009064999991097, 1.4189350999658927, 1.434088599984534, 1.4520354999694973, 1.4680092000053264, 1.4854661999852397, 1.5002188999787904, 1.5190660000080243, 1.53321219998179, 1.551835399994161, 1.5664324999670498, 1.5845862999558449, 1.6019542999565601, 1.6175054999766871, 1.6335094000096433, 1.6510067000053823, 1.6668514999910258, 1.6852868999703787, 1.7002534999628551, 1.7178082999889739, 1.734493099967949, 1.752356199955102, 1.7683957999688573, 1.7858838000101969, 1.8003939999616705, 1.8186865999596193, 1.834403399960138, 1.8523354000062682, 1.8673614999861456, 1.8874034999753349, 1.9002164999837987, 1.9176265999558382, 1.9343779999762774, 1.9510914999991655, 1.9674281000043266]

S01;8;0;0;1;False;1000;True;;8;-65.42559593459735;drag;L;4.0535784;-6.264621;-57.09;7.46;2.384706999990158;2.384887600026559;1685442168.8332999;1685442168.8509789;1685442169.6055336;1685442170.1069293;1685442171.0877726;1685442173.4731374;[0.0, 0.0, 0.0, 0.0, 0.0, 0.0, 0.0, 0.0, 0.0, 0.0, 0.0, 0.0, 0.0, 0.0, 0.0, 0.0, 0.0, 0.0, 0.0, 0.0, 0.0, 0.0, 0.0, 0.0, 0.0, 0.0, 0.0, 0.0, 0.0, 0.0, 0.0, 0.0, 0.0, 0.0, 0.0, 0.0, 0.0, 0.0, 0.0, 0.0, 0.0, 0.0850401, 0.1700802, 0.39685383, 0.59528077, 0.79370767, 1.0204812, 1.1338681, 1.2756016, 1.4740285, 1.6157619, 1.8425356, 1.984269, 2.1260026, 2.3244295, 2.4378164, 2.5228565, 2.6362433, 2.6929367, 2.7212832, 2.7779768, 2.8063235, 2.9197102, 3.0047503, 3.1181371, 3.2598708, 3.3732576, 3.4582977, 3.6283777, 3.7417645, 3.8551514, 3.968538, 3.996885, 4.0535784, 4.110272, 4.1386185, 4.1386185, 4.1953115, 4.2236586, 4.252005, 4.252005, 4.2803516, 4.2803516, 4.3086987, 4.337045, 4.337045, 4.337045, 4.337045, 4.337045, 4.337045, 4.337045, 4.337045, 4.337045, 4.3086987, 4.3086987, 4.3086987, 4.3086987, 4.3086987, 4.3086987, 4.3086987, 4.3086987, 4.3086987, 4.3086987, 4.3086987, 4.3086987, 4.3086987, 4.3086987, 4.3086987, 4.3086987, 4.3086987, 4.3086987, 4.3086987, 4.3086987, 4.3086987, 4.3086987, 4.3086987, 4.2803516, 4.252005, 4.1953115, 4.166965, 4.1386185, 4.1386185, 4.110272, 4.081925, 4.081925, 4.081925, 4.081925, 4.081925, 4.081925, 4.081925, 4.0535784, 4.0535784, 4.0535784, 4.0535784, 4.0535784, 4.0535784, 4.0535784, 4.0535784, 4.0535784, 4.0535784, 4.0535784, 4.0535784, 4.0535784];[0.0, 0.0, 0.0, 0.0, 0.0, 0.0, 0.0, 0.0, 0.0, 0.0, 0.0, 0.0, 0.0, 0.0, 0.0, 0.0, 0.0, 0.0, 0.0, 0.0, 0.0, 0.0, 0.0, 0.0, 0.0, 0.0, 0.0, 0.0, 0.0, 0.0, 0.0, 0.0, 0.0, 0.0, 0.0, 0.0, 0.0, 0.0, 0.0, 0.0, 0.0, -0.19842692, -0.39685383, -0.79370767, -1.1338681, -1.3889884, -1.7291489, -1.9275757, -2.0409625, -2.2393894, -2.4094696, -2.7212832, -2.8630168, -3.0330973, -3.2598708, -3.3449106, -3.4582977, -3.5716846, -3.6567245, -3.713418, -3.8268046, -3.8834982, -4.0535784, -4.166965, -4.2803516, -4.422086, -4.5354724, -4.620512, -4.7905927, -4.9039793, -4.9890194, -5.1024065, -5.1874466, -5.2724867, -5.32918, -5.4425664, -5.4992604, -5.5559535, -5.6409936, -5.697687, -5.75438, -5.8394203, -5.896114, -5.9528074, -5.981154, -6.0095005, -6.0661945, -6.094541, -6.1228876, -6.2079277, -6.2362742, -6.264621, -6.292968, -6.321315, -6.321315, -6.3496614, -6.3496614, -6.3496614, -6.3496614, -6.3496614, -6.3496614, -6.3496614, -6.3496614, -6.3496614, -6.3496614, -6.3496614, -6.3496614, -6.3496614, -6.3496614, -6.3496614, -6.3496614, -6.3496614, -6.3496614, -6.3496614, -6.3496614, -6.3496614, -6.3496614, -6.321315, -6.321315, -6.321315, -6.321315, -6.321315, -6.321315, -6.321315, -6.321315, -6.321315, -6.321315, -6.321315, -6.321315, -6.292968, -6.264621, -6.264621, -6.264621, -6.264621, -6.264621, -6.264621, -6.264621, -6.264621, -6.264621, -6.264621, -6.264621, -6.264621, -6.264621];[0.004566900024656206, 0.018061500042676926, 0.034472000028472394, 0.052067400014493614, 0.06814730004407465, 0.08536530000856146, 0.10044720000587404, 0.11846440000226721, 0.13487120001809672, 0.15205259999493137, 0.16789030004292727, 0.1855834000161849, 0.20062140002846718, 0.2190060000284575, 0.23404010001104325, 0.2523714000126347, 0.2685700000147335, 0.2863682000315748, 0.3004270000383258, 0.31927730003371835, 0.3335592999937944, 0.3526865000021644, 0.3676343000261113, 0.38550500001292676, 0.40166060003684834, 0.41852900001686066, 0.4343836000189185, 0.4523285000468604, 0.4688762000296265, 0.48562769999261945, 0.5011384999961592, 0.5183320000069216, 0.5346825000015087, 0.5531536000198685, 0.5666140000103042, 0.5851213000132702, 0.6008289000019431, 0.6180545000243001, 0.6345312999910675, 0.6526602000230923, 0.6677870000130497, 0.6853185000363737, 0.7015209000092, 0.7195669999928214, 0.7336430000141263, 0.7523201000294648, 0.7698974999948405, 0.7847856000298634, 0.7997785999905318, 0.816781000001356, 0.8337140000076033, 0.8532390000182204, 0.8678781000198796, 0.8852721000439487, 0.9034921000129543, 0.9176623999956064, 0.9342649000464007, 0.951151299988851, 0.9676199000095949, 0.984803200000897, 1.0009467999916524, 1.0175461000180803, 1.0373408000450581, 1.0505918000126258, 1.0679476000368595, 1.0840885000070557, 1.1011031999951228, 1.1181756000150926, 1.1344121000147425, 1.1522548000211827, 1.1674586000153795, 1.1852709000231698, 1.200200200022664, 1.217582900018897, 1.2352031000191346, 1.254014800011646, 1.2667632999946363, 1.2845524000003934, 1.3031198999960907, 1.3170628999941982, 1.3347507000435144, 1.3517858000122942, 1.3669447000138462, 1.3852443000068888, 1.40186939999694, 1.4173936000443064, 1.4344719999935478, 1.4504785000463016, 1.467082199989818, 1.4859731000033207, 1.5001907999976538, 1.5177422999986447, 1.5330067000468262, 1.5502001999993809, 1.5667941000428982, 1.5841928000445478, 1.6003440000349656, 1.61797210003715, 1.6335936000104994, 1.6513142000185326, 1.6667846000054851, 1.6852197000407614, 1.7011647000326775, 1.718039300001692, 1.7343508999911137, 1.750599900027737, 1.766616500040982, 1.7845568000338972, 1.800354300008621, 1.818450600025244, 1.8345683999941684, 1.8511811000062153, 1.8670648999977857, 1.8838412000332028, 1.900270400044974, 1.9171408000402153, 1.9334911000332795, 1.952715800027363, 1.9663207000121474, 1.9860021999920718, 2.0013339000288397, 2.018244000035338, 2.035470400005579, 2.0532116999966092, 2.066533800039906, 2.0843205000273883, 2.100464600021951, 2.1175499000237323, 2.1340150000178255, 2.1521104000275955, 2.166901400021743, 2.1842955000465736, 2.202064600016456, 2.2182406000210904, 2.2348269000067376, 2.251954800041858, 2.268221300037112, 2.2848482000408694, 2.300326100026723, 2.320145500008948, 2.3343157999916, 2.3512612000340596, 2.368246200028807]

S01;9;0;0;1;False;3000;True;;8;80.65009919297034;drag;L;1.7008021;6.1228876;74.48;6.35;1.6983605000423267;1.6984343999647535;1685442174.2330265;1685442174.2500272;1685442175.0059817;1685442175.5067549;1685442178.5043461;1685442180.2029755;[0.0, 0.0, 0.0, 0.0, 0.0, 0.0, 0.0, 0.0, 0.0, 0.0, 0.0, 0.0, 0.0, 0.0, 0.0, 0.0, 0.0, 0.0, 0.0, 0.0, 0.0, 0.0, 0.0, 0.0, 0.0, 0.0, 0.0, 0.0, 0.0, 0.0, 0.0, 0.0, 0.0, 0.0, 0.0, 0.0, 0.0, 0.0, 0.0, 0.0, 0.0, 0.0283467, 0.0850401, 0.14173351, 0.19842692, 0.3118137, 0.39685383, 0.5102406, 0.65197414, 0.73701423, 0.8220543, 0.87874776, 0.93544114, 0.96378785, 1.0204812, 1.0771747, 1.1055214, 1.1338681, 1.1905615, 1.2472548, 1.2756016, 1.3039483, 1.332295, 1.3606416, 1.3889884, 1.417335, 1.4456817, 1.5023751, 1.5307219, 1.5590686, 1.5874153, 1.6157619, 1.6441087, 1.6724553, 1.6724553, 1.7008021, 1.7008021, 1.7008021, 1.7008021, 1.7008021, 1.7008021, 1.7008021, 1.7008021, 1.7008021, 1.7008021, 1.7008021, 1.7008021, 1.7008021, 1.7008021, 1.7008021, 1.7008021, 1.7008021, 1.7008021, 1.7008021, 1.7008021, 1.7008021, 1.7008021, 1.7008021, 1.7008021, 1.7008021, 1.7008021, 1.7008021];[0.0, 0.0, 0.0, 0.0, 0.0, 0.0, 0.0, 0.0, 0.0, 0.0, 0.0, 0.0, 0.0, 0.0, 0.0, 0.0, 0.0, 0.0, 0.0, 0.0, 0.0, 0.0, 0.0, 0.0, 0.0, 0.0, 0.0, 0.0, 0.0, 0.0, 0.0, 0.0, 0.0, 0.0, 0.0, 0.0, 0.0, 0.0, 0.1133868, 0.48189393, 0.8220543, 0.9921345, 1.1622148, 1.3889884, 1.5307219, 1.9559225, 2.2393894, 2.5228565, 2.948057, 3.2598708, 3.6000311, 3.968538, 4.1386185, 4.365392, 4.478779, 4.6772056, 4.7905927, 4.9039793, 5.017366, 5.130753, 5.1874466, 5.2724867, 5.3575263, 5.41422, 5.4992604, 5.5559535, 5.7260337, 5.811074, 5.8677673, 5.924461, 5.981154, 6.0095005, 6.0661945, 6.094541, 6.094541, 6.1228876, 6.1228876, 6.1228876, 6.1228876, 6.1228876, 6.1228876, 6.1228876, 6.1228876, 6.1228876, 6.1228876, 6.1228876, 6.1228876, 6.1228876, 6.1228876, 6.1228876, 6.1228876, 6.1228876, 6.1228876, 6.1228876, 6.1228876, 6.1228876, 6.1228876, 6.1228876, 6.1228876, 6.1228876, 6.1228876, 6.1228876];[0.00409070000750944, 0.01705460000084713, 0.035136899969074875, 0.049954299989622086, 0.06846679997397587, 0.0840580000076443, 0.10178919997997582, 0.11742329999106005, 0.13483830000041053, 0.1503678999724798, 0.1710867999936454, 0.18400429998291656, 0.2002195999957621, 0.2170820999890566, 0.23526579997269437, 0.2494155999738723, 0.26951750001171604, 0.28451799997128546, 0.30199979996541515, 0.3171501000178978, 0.3350285000051372, 0.35100369999418035, 0.3685978999710642, 0.3837825999944471, 0.4021496999775991, 0.41733169998042285, 0.43472909997217357, 0.4501536000170745, 0.4697718999814242, 0.48399249999783933, 0.5016094999737106, 0.5168542999890633, 0.5344181999680586, 0.5503140999935567, 0.5679783999803476, 0.5830180000048131, 0.6011276000062935, 0.6171088999835774, 0.6341689999680966, 0.6508336999686435, 0.6675383999827318, 0.682784200005699, 0.6996043999679387, 0.7172772000194527, 0.7341844000038691, 0.7524590999819338, 0.767740799987223, 0.7828810999635607, 0.800117600010708, 0.8159317999961786, 0.834525800019037, 0.8503152999910526, 0.8679570999811403, 0.8863686000113375, 0.9006695999996737, 0.9198201000108384, 0.9345496000023559, 0.9515409999876283, 0.9679945000098087, 0.9831316000199877, 1.0015091999666765, 1.0167485999991186, 1.0333065000013448, 1.0508172999834642, 1.0679757000179961, 1.0836455000098795, 1.1031265999772586, 1.1165190999745391, 1.135127299989108, 1.150014300015755, 1.1670545999659225, 1.1848387999925762, 1.1999682000023313, 1.2160230000154115, 1.2338278999668546, 1.2498301999876276, 1.2679528999724425, 1.2834031999809667, 1.3005518999998458, 1.317034900013823, 1.334900200017728, 1.3493912999983877, 1.3679011999629438, 1.3835992999956943, 1.400402600003872, 1.417148599983193, 1.4337973999790847, 1.450089799996931, 1.4669616000028327, 1.483399599965196, 1.5013646999723278, 1.5173137999954633, 1.5357551000197418, 1.5514434999786317, 1.5683011999935843, 1.5831530999857932, 1.6012815000140108, 1.6179693000158295, 1.6350078000104986, 1.650057899998501, 1.6679970999830402, 1.683817100012675]

S01;10;0;0;1;False;1000;True;;8;-101.99258441544029;drag;L;-0.7086675;-7.029982;-95.76;7.07;2.065432100032922;2.0655240999767557;1685442181.1150646;1685442181.1323328;1685442181.8891504;1685442182.3892026;1685442183.3708634;1685442185.4364681;[0.0, 0.0, 0.0, 0.0, 0.0, 0.0, 0.0, 0.0, 0.0, 0.0, 0.0, 0.0, 0.0, 0.0, 0.0, 0.0, 0.0, 0.0, 0.0, 0.0, 0.0, 0.0, 0.0, 0.0, 0.0, 0.0, 0.0, 0.0, 0.0, 0.0, 0.0, 0.0, 0.0, 0.0, 0.0, 0.0, 0.0, 0.0, 0.0, 0.0, 0.0, 0.0, 0.0, 0.0, 0.0, -0.1133868, -0.28346702, -0.4535472, -0.5102406, -0.56693405, -0.6236274, -0.65197414, -0.7086675, -0.76536095, -0.76536095, -0.79370767, -0.79370767, -0.79370767, -0.79370767, -0.79370767, -0.79370767, -0.79370767, -0.79370767, -0.79370767, -0.79370767, -0.76536095, -0.76536095, -0.76536095, -0.73701423, -0.7086675, -0.7086675, -0.7086675, -0.7086675, -0.7086675, -0.7086675, -0.7086675, -0.7086675, -0.7086675, -0.7086675, -0.7086675, -0.7086675, -0.7086675, -0.7086675, -0.7086675, -0.7086675, -0.7086675, -0.7086675, -0.7086675, -0.7086675, -0.7086675, -0.7086675, -0.7086675, -0.7086675, -0.7086675, -0.7086675, -0.7086675, -0.7086675, -0.7086675, -0.7086675, -0.7086675, -0.7086675, -0.7086675, -0.7086675, -0.7086675, -0.7086675, -0.7086675, -0.7086675, -0.7086675, -0.7086675, -0.7086675, -0.7086675, -0.7086675, -0.7086675, -0.7086675, -0.7086675, -0.7086675, -0.7086675, -0.7086675, -0.7086675, -0.7086675, -0.7086675, -0.7086675, -0.7086675, -0.7086675];[0.0, 0.0, 0.0, 0.0, 0.0, 0.0, 0.0, 0.0, 0.0, 0.0, 0.0, 0.0, 0.0, 0.0, 0.0, 0.0, 0.0, 0.0, 0.0, 0.0, 0.0, 0.0, 0.0, 0.0, 0.0, 0.0, 0.0, 0.0, 0.0, 0.0, 0.0, 0.0, 0.0, 0.0, 0.0, 0.0, 0.0, 0.0, 0.0, 0.0, 0.0, 0.0, 0.0, 0.0, -0.3401604, -1.2472548, -2.6362433, -3.3449106, -3.770111, -3.968538, -4.3086987, -4.5354724, -4.9039793, -5.1874466, -5.3575263, -5.5843005, -5.75438, -6.151234, -6.292968, -6.6614747, -6.8032084, -6.944942, -7.0016356, -7.0583286, -7.1150217, -7.1717157, -7.2000623, -7.313449, -7.3701425, -7.4551826, -7.483529, -7.5118756, -7.5118756, -7.540222, -7.540222, -7.540222, -7.540222, -7.540222, -7.540222, -7.540222, -7.540222, -7.540222, -7.5118756, -7.4551826, -7.3984895, -7.313449, -7.2567554, -7.2000623, -7.143369, -7.143369, -7.086675, -7.086675, -7.0583286, -7.0583286, -7.0583286, -7.0583286, -7.0583286, -7.0583286, -7.0583286, -7.029982, -7.029982, -7.029982, -7.029982, -7.029982, -7.029982, -7.029982, -7.029982, -7.029982, -7.029982, -7.029982, -7.029982, -7.029982, -7.029982, -7.029982, -7.029982, -7.029982, -7.029982, -7.029982, -7.029982, -7.029982, -7.029982, -7.029982, -7.029982, -7.029982];[0.003716600011102855, 0.018997800012584776, 0.03333589999238029, 0.05121780000627041, 0.06739779998315498, 0.08398970001144335, 0.10153879999415949, 0.11864780000178143, 0.13373489998048171, 0.1516035000095144, 0.16700710001168773, 0.18523579998873174, 0.20143109996570274, 0.21889789996203035, 0.23379540001042187, 0.2516794999828562, 0.2687748000025749, 0.2853453999850899, 0.29930939996847883, 0.3179883999982849, 0.33395759999984875, 0.3537891000160016, 0.3675239000003785, 0.38518019998446107, 0.4003023999975994, 0.4197433000081219, 0.43399290001252666, 0.4518042000127025, 0.4669904999900609, 0.48540100001264364, 0.5002081000129692, 0.5176438000053167, 0.5331212999881245, 0.551379700016696, 0.5674884999752976, 0.5847444999963045, 0.6011054000118747, 0.6183711999910884, 0.6341623999760486, 0.6515616999822669, 0.6674674999667332, 0.6847467999905348, 0.6998405999620445, 0.7179752999800257, 0.7376860000076704, 0.7509098000009544, 0.7671942000160925, 0.7838968000141904, 0.800034300016705, 0.8187174999620765, 0.834322799986694, 0.8504189999657683, 0.8691667999955826, 0.8846064999816008, 0.9002383999759331, 0.918658200011123, 0.9328208999941126, 0.9543677999754436, 0.9671065000002272, 0.9832358999992721, 1.0002744999947026, 1.0173242000164464, 1.0340080999885686, 1.051519799977541, 1.0671800000127405, 1.0889678999665193, 1.099013599974569, 1.1181287000072189, 1.1348644999670796, 1.1509943999699317, 1.1672709999838844, 1.184861199988518, 1.2009619000018574, 1.2212244999827817, 1.2333667000057176, 1.2517380999634042, 1.2673552999622189, 1.283501099969726, 1.3005030999775045, 1.3171237999922596, 1.3327820000122301, 1.3506100999657065, 1.3662159999948926, 1.3837363999919035, 1.3994221999892034, 1.416748599964194, 1.4342338999849744, 1.4529311999795027, 1.4668752999859862, 1.484682000009343, 1.50085939996643, 1.5180454999790527, 1.5336402999819256, 1.55089059995953, 1.567395799967926, 1.5838282000040635, 1.5997548999730498, 1.6177167000132613, 1.6330822000163607, 1.6502694999799132, 1.6666543000028469, 1.6847423000144772, 1.7005452999728732, 1.7172983000054955, 1.7333783999783918, 1.7512027999619022, 1.76652429997921, 1.7836951999925077, 1.8001322000054643, 1.8169820999610238, 1.8328308999771252, 1.8509361000033095, 1.8668284000013955, 1.8845537999877706, 1.9003854999900796, 1.9176299999817275, 1.9351382000022568, 1.9515022999839857, 1.9673060000059195, 1.9846612999681383, 2.000055899959989, 2.017906699969899, 2.0326829999685287, 2.0506645999848843]

S01;11;0;0;1;False;3000;True;;8;-82.37518397777093;drag;L;2.2393894;-6.5764346;-71.2;6.95;2.7302302999887615;2.730327999975998;1685442186.2157655;1685442186.2322435;1685442186.9882379;1685442187.489093;1685442190.4885957;1685442193.2191217;[0.0, 0.0, 0.0, 0.0, 0.0, 0.0, 0.0, 0.0, 0.0, 0.0, 0.0, 0.0, 0.0, 0.0, 0.0, 0.0, 0.0, 0.0, 0.0, 0.0, 0.0, 0.0, 0.0, 0.0, 0.0, 0.0, 0.0, 0.0, 0.0, 0.0, 0.0, 0.0, 0.0, 0.0, 0.0, 0.0, 0.0, 0.0, 0.0, 0.0, 0.0, 0.0, 0.0, 0.0, 0.0, 0.0, 0.0, 0.0, 0.0, 0.0, 0.0, 0.0, 0.0, 0.0, 0.0, 0.0, 0.1133868, 0.19842692, 0.2551203, 0.3118137, 0.42520052, 0.5102406, 0.6236274, 0.6803208, 0.73701423, 0.73701423, 0.76536095, 0.79370767, 0.8220543, 0.87874776, 0.9070944, 0.9921345, 1.0488279, 1.0771747, 1.1055214, 1.1338681, 1.1622148, 1.1905615, 1.2472548, 1.332295, 1.3606416, 1.4740285, 1.5874153, 1.6724553, 1.8141888, 1.8708823, 1.9275757, 2.012616, 2.0409625, 2.0693092, 2.0976558, 2.1260026, 2.1260026, 2.1260026, 2.1543493, 2.1543493, 2.1543493, 2.1543493, 2.211043, 2.211043, 2.211043, 2.2393894, 2.2393894, 2.2393894, 2.2393894, 2.2393894, 2.2393894, 2.2393894, 2.2393894, 2.2393894, 2.2393894, 2.2393894, 2.2393894, 2.2393894, 2.2393894, 2.2393894, 2.2393894, 2.2393894, 2.2393894, 2.2393894, 2.2393894, 2.2393894, 2.2393894, 2.2393894, 2.2393894, 2.2393894, 2.2393894, 2.2393894, 2.2393894, 2.2393894, 2.2393894, 2.2393894, 2.2393894, 2.2393894, 2.2393894, 2.2393894, 2.2393894, 2.2393894, 2.2393894, 2.2393894, 2.2393894, 2.2393894, 2.2393894, 2.2393894, 2.2393894, 2.2393894, 2.2393894, 2.2393894, 2.2393894, 2.2393894, 2.2393894, 2.2393894, 2.2393894, 2.2393894, 2.2393894, 2.2393894, 2.2393894, 2.2393894, 2.2393894, 2.2393894, 2.2393894, 2.2393894, 2.2393894];[0.0, 0.0, 0.0, 0.0, 0.0, 0.0, 0.0, 0.0, 0.0, 0.0, 0.0, 0.0, 0.0, 0.0, 0.0, 0.0, 0.0, 0.0, 0.0, 0.0, 0.0, 0.0, 0.0, 0.0, 0.0, 0.0, 0.0, 0.0, 0.0, 0.0, 0.0, 0.0, 0.0, 0.0, 0.0, 0.0, 0.0, 0.0, 0.0, 0.0, 0.0, 0.0, 0.0, 0.0, 0.0, 0.0, 0.0, 0.0, 0.0, 0.0, 0.0, 0.0, 0.0, 0.0, 0.0, 0.0, -0.42520052, -0.79370767, -1.2189082, -1.4740285, -1.9559225, -2.2960827, -2.6078966, -2.9197102, -3.0330973, -3.1181371, -3.2031772, -3.2598708, -3.316564, -3.4582977, -3.5433376, -3.6567245, -3.770111, -3.8551514, -3.911845, -3.968538, -4.1386185, -4.252005, -4.5071254, -4.932326, -5.2724867, -5.5559535, -5.8394203, -5.9528074, -6.1228876, -6.2079277, -6.264621, -6.292968, -6.321315, -6.3496614, -6.3496614, -6.378008, -6.378008, -6.378008, -6.378008, -6.378008, -6.4063544, -6.4063544, -6.434701, -6.434701, -6.434701, -6.434701, -6.434701, -6.434701, -6.434701, -6.4630475, -6.4630475, -6.4630475, -6.4630475, -6.4630475, -6.4630475, -6.4630475, -6.4630475, -6.4630475, -6.4630475, -6.4630475, -6.4630475, -6.4630475, -6.4630475, -6.4630475, -6.4630475, -6.4630475, -6.4630475, -6.4630475, -6.4630475, -6.4630475, -6.4630475, -6.4630475, -6.4630475, -6.4630475, -6.4630475, -6.4630475, -6.491395, -6.5197415, -6.5197415, -6.548088, -6.5764346, -6.5764346, -6.5764346, -6.5764346, -6.5764346, -6.5764346, -6.5764346, -6.5764346, -6.5764346, -6.5764346, -6.5764346, -6.5764346, -6.5764346, -6.5764346, -6.5764346, -6.5764346, -6.5764346, -6.5764346, -6.5764346, -6.5764346, -6.5764346, -6.5764346, -6.5764346, -6.5764346, -6.5764346, -6.5764346, -6.5764346];[0.005141899979207665, 0.03140390000771731, 0.052129599964246154, 0.06599669996649027, 0.08486199995968491, 0.09985479997703806, 0.11795220000203699, 0.13456069998210296, 0.15125649998662993, 0.16646079998463392, 0.18423399998573586, 0.20001349999802187, 0.2180377999902703, 0.23311309999553487, 0.2503372000064701, 0.26841600000625476, 0.28391209995606914, 0.29888319998281077, 0.31730019999668, 0.333208600000944, 0.35012879996793345, 0.36630829999921843, 0.3837841000058688, 0.39994440000737086, 0.4182823000010103, 0.4332662000088021, 0.4495320999994874, 0.46662550000473857, 0.4837258000043221, 0.5000296999933198, 0.517915999982506, 0.5330103999585845, 0.5511465999879874, 0.5673955999664031, 0.5840700999833643, 0.6012824999634176, 0.617060299962759, 0.6328750999527983, 0.6521025999682024, 0.6663095999974757, 0.6829908000072464, 0.6997508999775164, 0.7165042999549769, 0.7326475000008941, 0.7507346000056714, 0.7660822999896482, 0.784680099983234, 0.7988278999691829, 0.8180371999624185, 0.8328882000059821, 0.8495603000046685, 0.8659994999761693, 0.8829950999934226, 0.8991654999554157, 0.9177561999531463, 0.9322095999959856, 0.948972899990622, 0.9665694999857806, 0.9832001999602653, 0.9996916999807581, 1.0187202999950387, 1.0330218999879435, 1.0510587999597192, 1.066435199987609, 1.0839618999743834, 1.0991906999843195, 1.1159399999887682, 1.1321851999964565, 1.149487999966368, 1.1659238999709487, 1.1845313999801874, 1.1986693000071682, 1.2172720999806188, 1.2348130999598652, 1.2488487999653444, 1.266686299990397, 1.2844858999596909, 1.299204999988433, 1.3173740999773145, 1.3337401999742724, 1.3498694999725558, 1.366293200000655, 1.3824372999952175, 1.3987164999707602, 1.4187315999879502, 1.4323875999543816, 1.4518103000009432, 1.4678121999604627, 1.4829039999749511, 1.4985600999789312, 1.5163493999862112, 1.5338843999779783, 1.5498553999932483, 1.5654967000009492, 1.5843939000042155, 1.5981687000021338, 1.6173413000069559, 1.6320147999795154, 1.6491012999904342, 1.6664797999546863, 1.683019099989906, 1.6992992999730632, 1.7169220999930985, 1.7329187999712303, 1.7505508000031114, 1.7658432999742217, 1.7825912999687716, 1.7999028000049293, 1.815865299955476, 1.833411999978125, 1.8503903999808244, 1.8657480999827385, 1.8845384999876842, 1.9003828999702819, 1.9174172999919392, 1.932857799984049, 1.9509007000015117, 1.9664748999639414, 1.984872600005474, 1.9997559000039473, 2.018309499952011, 2.0334319999674335, 2.0505609000101686, 2.0666120999958366, 2.083794299978763, 2.0987504000077024, 2.1163538999971934, 2.1318162999814376, 2.149018900003284, 2.166660499991849, 2.183773699973244, 2.1988881999859586, 2.2163944999920204, 2.2337456999812275, 2.2498385999933816, 2.2653759999666363, 2.282688799954485, 2.298941599961836, 2.31764879997354, 2.3334358999854885, 2.350883499952033, 2.366144199972041, 2.3842315999791026, 2.3993994999909773, 2.416561299993191, 2.432766599988099, 2.45125729998108, 2.466603699955158, 2.4844720999826677, 2.498415299982298, 2.5167876000050455, 2.533224099955987, 2.5506015999708325, 2.5660260999575257, 2.583868799963966, 2.5997559999814257, 2.6175089000025764, 2.6335289999842644, 2.651677399990149, 2.6654255999601446, 2.683071299979929, 2.699228299956303, 2.716803399962373]

S01;12;0;0;1;False;1000;True;;8;124.71267042470456;drag;L;-4.3086987;5.612647;127.51;7.08;1.8498697000322863;1.8499860999872908;1685442193.977449;1685442193.9815922;1685442194.7379239;1685442195.2378957;1685442196.2206502;1685442198.0706406;[0.0, 0.0, 0.0, 0.0, 0.0, 0.0, 0.0, 0.0, 0.0, 0.0, 0.0, 0.0, 0.0, 0.0, 0.0, 0.0, 0.0, 0.0, 0.0, 0.0, 0.0, 0.0, 0.0, 0.0, 0.0, 0.0, 0.0, 0.0, 0.0, 0.0, 0.0, 0.0, 0.0, 0.0, 0.0, 0.0, 0.0, 0.0, 0.0, 0.0, 0.0, 0.0, 0.0, 0.0, -0.0566934, -0.28346702, -0.53858733, -0.7086675, -0.85040104, -1.0771747, -1.2472548, -1.417335, -1.6724553, -1.8141888, -1.984269, -2.182696, -2.2960827, -2.466163, -2.5512033, -2.7212832, -2.8063235, -2.948057, -2.9764037, -3.0897903, -3.146484, -3.2315238, -3.2882173, -3.3449106, -3.4299507, -3.4582977, -3.5433376, -3.6000311, -3.6283777, -3.713418, -3.770111, -3.8268046, -3.8834982, -3.911845, -3.968538, -3.996885, -4.025232, -4.081925, -4.081925, -4.081925, -4.110272, -4.1386185, -4.1386185, -4.1953115, -4.2236586, -4.252005, -4.252005, -4.3086987, -4.3086987, -4.3086987, -4.3086987, -4.3086987, -4.3086987, -4.3086987, -4.3086987, -4.3086987, -4.3086987, -4.3086987, -4.3086987, -4.3086987, -4.3086987, -4.3086987, -4.3086987, -4.3086987, -4.3086987, -4.3086987, -4.3086987];[0.0, 0.0, 0.0, 0.0, 0.0, 0.0, 0.0, 0.0, 0.0, 0.0, 0.0, 0.0, 0.0, 0.0, 0.0, 0.0, 0.0, 0.0, 0.0, 0.0, 0.0, 0.0, 0.0, 0.0, 0.0, 0.0, 0.0, 0.0, 0.0, 0.0, 0.0, 0.0, 0.0, 0.0, 0.0, 0.0, 0.0, 0.0, 0.0, 0.0, 0.0, 0.0, 0.0, 0.0, 0.0566934, 0.3118137, 0.6236274, 0.85040104, 1.0771747, 1.4740285, 1.7008021, 1.984269, 2.3244295, 2.57955, 2.8063235, 3.146484, 3.2882173, 3.514991, 3.6567245, 3.8268046, 3.911845, 4.0535784, 4.110272, 4.2236586, 4.3086987, 4.4504323, 4.5354724, 4.5921655, 4.762246, 4.875633, 5.017366, 5.1024065, 5.1874466, 5.32918, 5.3858733, 5.4425664, 5.4425664, 5.4709134, 5.4709134, 5.4709134, 5.4709134, 5.4709134, 5.4709134, 5.4709134, 5.4992604, 5.527607, 5.527607, 5.5559535, 5.5559535, 5.5843005, 5.5843005, 5.612647, 5.612647, 5.612647, 5.612647, 5.612647, 5.612647, 5.612647, 5.612647, 5.612647, 5.612647, 5.612647, 5.612647, 5.612647, 5.612647, 5.612647, 5.612647, 5.612647, 5.612647, 5.612647, 5.612647];[0.004315999976824969, 0.018169699993450195, 0.03405820002080873, 0.051197700027842075, 0.06892689998494461, 0.08603150001727045, 0.10035429999697953, 0.11928560002706945, 0.13384540000697598, 0.15149429999291897, 0.16707229998428375, 0.18721699999878183, 0.20066219998989254, 0.21731799998087808, 0.23457750002853572, 0.2520387999829836, 0.2678909000242129, 0.28552309999940917, 0.3020099999848753, 0.31898260000161827, 0.33493349998025224, 0.352857000019867, 0.36863280000397936, 0.3854401999851689, 0.4012656999984756, 0.4188346000155434, 0.4348032000125386, 0.451500799972564, 0.4687609000247903, 0.48667409998597577, 0.5016066000098363, 0.5190602000220679, 0.5346437999978662, 0.5522938999929465, 0.568688299972564, 0.586291000014171, 0.6019683000049554, 0.6185973000247031, 0.6342569999978878, 0.6520372999948449, 0.6672013999777846, 0.6850263000233099, 0.7014168999739923, 0.71840399998473, 0.7346481999848038, 0.7528644999838434, 0.7689493999932893, 0.7835579999955371, 0.8020734000019729, 0.8180698999785818, 0.8345979999867268, 0.8513953000074252, 0.8670460000284947, 0.8865424999967217, 0.9003994999802671, 0.918068700004369, 0.9339981999946758, 0.9514205000014044, 0.9679283000295982, 0.9857904000091366, 1.0004142000107095, 1.0215245999861509, 1.0337157999747433, 1.051638200005982, 1.0686225999961607, 1.084683799999766, 1.1003211999777704, 1.1180381000158377, 1.1344492000062019, 1.1521996000083163, 1.1699385999818332, 1.1861338000162505, 1.2014316000277176, 1.2170880999765359, 1.233378199976869, 1.2532097999937832, 1.2673043999820948, 1.2849074000259861, 1.3025475000031292, 1.3169664000160992, 1.33440440002596, 1.350741599977482, 1.3662088999990374, 1.3846096000052057, 1.39947880001273, 1.4172236999729648, 1.4330786999780685, 1.450769399991259, 1.4677494000061415, 1.483392400026787, 1.4997052000253461, 1.5198067000019364, 1.5337704999838024, 1.5515958999749273, 1.5673329000128433, 1.5840528000262566, 1.6002342000138015, 1.6183486999943852, 1.6340154000208713, 1.6526602000230923, 1.6675952000077814, 1.6838510999805294, 1.7010998000041582, 1.7196383000118658, 1.7350484000053257, 1.752070399990771, 1.7673835000023246, 1.7847766000195406, 1.8010015999898314, 1.8179855999769643, 1.834445099986624]

S01;13;0;0;1;False;3000;True;;8;9.943863886354892;drag;L;7.9087296;1.7291489;12.33;8.1;1.6498051999951713;1.6498894999967888;1685442198.7596867;1685442198.765561;1685442199.5213184;1685442200.0219111;1685442203.0211446;1685442204.6705308;[0.0, 0.0, 0.0, 0.0, 0.0, 0.0, 0.0, 0.0, 0.0, 0.0, 0.0, 0.0, 0.0, 0.0, 0.0, 0.0, 0.0, 0.0, 0.0, 0.0, 0.0, 0.0, 0.0, 0.0, 0.0, 0.0, 0.0, 0.0, 0.0, 0.0, 0.0, 0.0, 0.0, 0.0, 0.0, 0.0, 0.0, 0.0, 0.1700802, 0.4535472, 0.65197414, 0.9070944, 1.2756016, 1.4740285, 1.7291489, 1.9275757, 2.1543493, 2.3527763, 2.6929367, 2.8630168, 3.1748307, 3.3449106, 3.514991, 3.8551514, 4.0535784, 4.365392, 4.5071254, 4.6772056, 4.7905927, 4.9890194, 5.1024065, 5.3858733, 5.527607, 5.697687, 5.9528074, 6.1228876, 6.378008, 6.5197415, 6.6614747, 6.8599014, 7.0016356, 7.1150217, 7.1717157, 7.285102, 7.3701425, 7.426836, 7.540222, 7.6252627, 7.681956, 7.7386494, 7.795343, 7.82369, 7.8520365, 7.8520365, 7.880383, 7.9087296, 7.9087296, 7.9087296, 7.9087296, 7.9087296, 7.9087296, 7.9087296, 7.9087296, 7.9087296, 7.9087296, 7.9087296, 7.9087296, 7.9087296, 7.9087296];[0.0, 0.0, 0.0, 0.0, 0.0, 0.0, 0.0, 0.0, 0.0, 0.0, 0.0, 0.0, 0.0, 0.0, 0.0, 0.0, 0.0, 0.0, 0.0, 0.0, 0.0, 0.0, 0.0, 0.0, 0.0, 0.0, 0.0, 0.0, 0.0, 0.0, 0.0, 0.0, 0.0, 0.0, 0.0, 0.0, 0.0, 0.0, 0.0, 0.0, 0.0283467, 0.0566934, 0.14173351, 0.1700802, 0.19842692, 0.2267736, 0.2551203, 0.3118137, 0.36850712, 0.42520052, 0.5102406, 0.56693405, 0.59528077, 0.65197414, 0.7086675, 0.76536095, 0.8220543, 0.87874776, 0.96378785, 1.0771747, 1.1338681, 1.2472548, 1.2756016, 1.3606416, 1.4456817, 1.5023751, 1.5874153, 1.6157619, 1.6441087, 1.6724553, 1.6724553, 1.7008021, 1.7291489, 1.7291489, 1.7291489, 1.7291489, 1.7291489, 1.7291489, 1.7291489, 1.7291489, 1.7291489, 1.7291489, 1.7291489, 1.7291489, 1.7291489, 1.7291489, 1.7291489, 1.7291489, 1.7291489, 1.7291489, 1.7291489, 1.7291489, 1.7291489, 1.7291489, 1.7291489, 1.7291489, 1.7291489, 1.7291489, 1.7291489];[0.0042925000307150185, 0.017504499992355704, 0.03470210003433749, 0.05017280002357438, 0.06799460004549474, 0.08538990002125502, 0.10173799999756739, 0.11618670000461861, 0.13449250004487112, 0.150466300023254, 0.16824470000574365, 0.1830682000145316, 0.20015049999346957, 0.21600970003055409, 0.2350698999944143, 0.2504437000025064, 0.267316400015261, 0.2845975999953225, 0.3029044000431895, 0.3174544000066817, 0.3357622000039555, 0.35028050001710653, 0.3678618000121787, 0.3828330000396818, 0.4019723000237718, 0.4167834999971092, 0.43430560000706464, 0.4501997000188567, 0.46785740001359954, 0.4845033000456169, 0.5010805000201799, 0.5170622000005096, 0.5339520000270568, 0.5498892000177875, 0.5675465000094846, 0.5827116000000387, 0.6004115000250749, 0.6164877000264823, 0.6342806000029668, 0.6522301000077277, 0.6671474000322632, 0.6854258000385016, 0.6999779000179842, 0.7163175000459887, 0.736646400007885, 0.7485828000353649, 0.768292399996426, 0.78357720002532, 0.8007680000155233, 0.8165459000156261, 0.8348031000350602, 0.8488197000115179, 0.8675862000091001, 0.8840316000278108, 0.901469900039956, 0.9187064000288956, 0.9335636000032537, 0.9512512999936007, 0.9665046000154689, 0.9848141000256874, 1.0010123000247404, 1.0161900999955833, 1.032934800023213, 1.0495102000422776, 1.0662258000229485, 1.0844263000180945, 1.1000273000099696, 1.1160534000373445, 1.1346054000314325, 1.1496448999969289, 1.1680938000208698, 1.1846598000265658, 1.199997899995651, 1.217397100001108, 1.2322890000068583, 1.250670000037644, 1.2682354000280611, 1.2829780000029132, 1.3004705000203103, 1.3158525000326335, 1.3335398000199348, 1.349820000003092, 1.36717610002961, 1.3832323999959044, 1.4030508000287227, 1.4162881000083871, 1.4340154000092298, 1.4504791999934241, 1.4672707000281662, 1.4830360999912955, 1.5013604999985546, 1.516558300005272, 1.5340157000464387, 1.5494196999934502, 1.5668755000224337, 1.5828301000292413, 1.5999550000415184, 1.6160661000176333, 1.6347154999966733]

S01;14;0;0;1;False;3000;True;;8;-85.86397661239555;drag;L;0.9921345;-7.2000623;-82.15;7.27;1.5666007999680005;1.566696599998977;1685442205.3946142;1685442205.414737;1685442206.166824;1685442206.6690469;1685442209.6702068;1685442211.236415;[0.0, 0.0, 0.0, 0.0, 0.0, 0.0, 0.0, 0.0, 0.0, 0.0, 0.0, 0.0, 0.0, 0.0, 0.0, 0.0, 0.0, 0.0, 0.0, 0.0, 0.0, 0.0, 0.0, 0.0, 0.0, 0.0, 0.0, 0.0, 0.0, 0.0, 0.0, 0.0, 0.0, 0.0, 0.0, 0.0, 0.0, 0.0, 0.0, 0.0, 0.0, 0.0, 0.0, 0.0, 0.0, 0.0, 0.0, 0.0, 0.0, 0.0566934, 0.0850401, 0.1133868, 0.14173351, 0.14173351, 0.1700802, 0.1700802, 0.19842692, 0.2551203, 0.2551203, 0.3118137, 0.36850712, 0.4535472, 0.65197414, 0.76536095, 0.85040104, 0.87874776, 0.93544114, 0.96378785, 0.96378785, 0.9921345, 0.9921345, 0.9921345, 0.9921345, 0.9921345, 0.9921345, 0.9921345, 0.9921345, 0.9921345, 0.9921345, 0.9921345, 0.9921345, 0.9921345, 0.9921345, 0.9921345, 0.9921345, 0.9921345, 0.9921345, 0.9921345, 0.9921345, 0.9921345, 0.9921345, 0.9921345, 0.9921345, 0.9921345];[0.0, 0.0, 0.0, 0.0, 0.0, 0.0, 0.0, 0.0, 0.0, 0.0, 0.0, 0.0, 0.0, 0.0, 0.0, 0.0, 0.0, 0.0, 0.0, 0.0, 0.0, 0.0, 0.0, 0.0, 0.0, 0.0, 0.0, 0.0, 0.0, 0.0, 0.0, 0.0, 0.0, 0.0, 0.0, 0.0, 0.0, 0.0, 0.0, 0.0, -0.1700802, -0.7086675, -1.4456817, -1.8141888, -2.2677362, -2.57955, -3.0330973, -3.3449106, -3.6567245, -4.1386185, -4.422086, -4.648859, -4.9039793, -5.045713, -5.2724867, -5.3858733, -5.4992604, -5.697687, -5.75438, -5.8394203, -6.0095005, -6.1795807, -6.6047816, -6.831555, -6.9732885, -7.0583286, -7.1150217, -7.1717157, -7.1717157, -7.1717157, -7.2000623, -7.2000623, -7.2000623, -7.2000623, -7.2000623, -7.2000623, -7.2000623, -7.2000623, -7.2000623, -7.2000623, -7.2000623, -7.2000623, -7.2000623, -7.2000623, -7.2000623, -7.2000623, -7.2000623, -7.2000623, -7.2000623, -7.2000623, -7.2000623, -7.2000623, -7.2000623, -7.2000623];[0.005138899956364185, 0.018915099964942783, 0.034434499975759536, 0.05032849998679012, 0.06888929998967797, 0.08431349997408688, 0.10194309998769313, 0.11763789999531582, 0.13651039998512715, 0.1504970999667421, 0.16804769996087998, 0.18408589996397495, 0.2011439999914728, 0.21745689999079332, 0.23555059998761863, 0.25081719999434426, 0.2684410999645479, 0.284193100000266, 0.3023432999616489, 0.31779489998007193, 0.33504229999380186, 0.35181749996263534, 0.36789709998993203, 0.3839297999511473, 0.4013881999999285, 0.41743779997341335, 0.4352013999596238, 0.4508866999531165, 0.4685479999752715, 0.4840369999874383, 0.5026295999996364, 0.5171258999616839, 0.5362715999945067, 0.551124699995853, 0.5682636999990791, 0.5839150999672711, 0.6025261000031605, 0.6175961999688298, 0.6357266999548301, 0.648899799969513, 0.668759299966041, 0.6826983999926597, 0.7016009999788366, 0.7195307999500073, 0.7344246999709867, 0.7498515999759547, 0.7703818999580108, 0.7836872999905609, 0.8016349999816157, 0.8168283999548294, 0.8331867999513634, 0.8500716999988072, 0.8673043999588117, 0.8832393999909982, 0.903952999971807, 0.9167917000013404, 0.9343268999946304, 0.9518466999870725, 0.9669774000067264, 0.984925500000827, 1.0013387000071816, 1.0166535999742337, 1.0362813999527134, 1.0492886999854818, 1.068556699960027, 1.0836698999628425, 1.1010768999694847, 1.1201068999944255, 1.1342058999580331, 1.1502139999647625, 1.1694969999953173, 1.1832368999603204, 1.200998799991794, 1.2167491999571212, 1.234405199997127, 1.2495685999747366, 1.2670446999836713, 1.2832708999630995, 1.3011077999835834, 1.3162764000007883, 1.3332400999497622, 1.3496847999631427, 1.3674773999955505, 1.3836781999561936, 1.400856499967631, 1.4185228999704123, 1.4344568999949843, 1.4502294999547303, 1.4678628999972716, 1.4835503000067547, 1.5017205000040121, 1.5178947999957018, 1.533907899982296, 1.5487841999856755]

S01;15;0;0;1;False;1000;True;;8;-168.12348206696564;drag;L;-6.5197415;-2.381123;-159.94;6.94;2.183440699998755;2.183523200044874;1685442212.0367393;1685442212.0478725;1685442212.8036673;1685442213.3044107;1685442214.2854738;1685442216.4689908;[0.0, 0.0, 0.0, 0.0, 0.0, 0.0, 0.0, 0.0, 0.0, 0.0, 0.0, 0.0, 0.0, 0.0, 0.0, 0.0, 0.0, 0.0, 0.0, 0.0, 0.0, 0.0, 0.0, 0.0, 0.0, 0.0, 0.0, 0.0, 0.0, 0.0, 0.0, 0.0, 0.0, 0.0, 0.0, 0.0, 0.0, 0.0, 0.0, 0.0, 0.0, 0.0, 0.0, 0.0, 0.0, -0.53858733, -1.1622148, -1.8425356, -2.0693092, -2.3244295, -2.66459, -2.948057, -3.3449106, -3.6283777, -3.8551514, -4.252005, -4.5071254, -4.762246, -5.130753, -5.3858733, -5.612647, -5.924461, -6.094541, -6.321315, -6.7181687, -6.944942, -7.228409, -7.3701425, -7.5118756, -7.596916, -7.681956, -7.7386494, -7.795343, -7.82369, -7.82369, -7.8520365, -7.8520365, -7.8520365, -7.8520365, -7.8520365, -7.8520365, -7.82369, -7.82369, -7.7669964, -7.7386494, -7.710303, -7.6536093, -7.596916, -7.540222, -7.4551826, -7.3701425, -7.228409, -7.086675, -7.0016356, -6.944942, -6.8599014, -6.774862, -6.7181687, -6.6614747, -6.633128, -6.5764346, -6.5764346, -6.548088, -6.548088, -6.5197415, -6.5197415, -6.5197415, -6.5197415, -6.5197415, -6.5197415, -6.5197415, -6.5197415, -6.5197415, -6.5197415, -6.5197415, -6.5197415, -6.5197415, -6.5197415, -6.5197415, -6.5197415, -6.5197415, -6.5197415, -6.5197415, -6.5197415, -6.5197415, -6.5197415, -6.5197415, -6.5197415, -6.5197415, -6.5197415, -6.5197415];[0.0, 0.0, 0.0, 0.0, 0.0, 0.0, 0.0, 0.0, 0.0, 0.0, 0.0, 0.0, 0.0, 0.0, 0.0, 0.0, 0.0, 0.0, 0.0, 0.0, 0.0, 0.0, 0.0, 0.0, 0.0, 0.0, 0.0, 0.0, 0.0, 0.0, 0.0, 0.0, 0.0, 0.0, 0.0, 0.0, 0.0, 0.0, 0.0, 0.0, 0.0, 0.0, 0.0, 0.0, 0.0, -0.2551203, -0.5102406, -0.6803208, -0.7086675, -0.73701423, -0.79370767, -0.79370767, -0.85040104, -0.85040104, -0.87874776, -1.0204812, -1.0771747, -1.1905615, -1.332295, -1.4456817, -1.5307219, -1.6441087, -1.7291489, -1.8141888, -1.9559225, -2.0409625, -2.0976558, -2.1543493, -2.2393894, -2.2960827, -2.3527763, -2.4094696, -2.466163, -2.4945097, -2.5228565, -2.5512033, -2.57955, -2.6078966, -2.6078966, -2.6078966, -2.6078966, -2.6078966, -2.6078966, -2.6078966, -2.6078966, -2.6078966, -2.6078966, -2.6078966, -2.6078966, -2.6078966, -2.57955, -2.57955, -2.5512033, -2.5228565, -2.5228565, -2.5228565, -2.466163, -2.466163, -2.4378164, -2.381123, -2.381123, -2.381123, -2.381123, -2.381123, -2.381123, -2.381123, -2.381123, -2.381123, -2.381123, -2.381123, -2.381123, -2.381123, -2.381123, -2.381123, -2.381123, -2.381123, -2.381123, -2.381123, -2.381123, -2.381123, -2.381123, -2.381123, -2.381123, -2.381123, -2.381123, -2.381123, -2.381123, -2.381123, -2.381123, -2.381123, -2.381123];[0.00405220000538975, 0.018855400034226477, 0.03398480004398152, 0.05226710002170876, 0.06851680000545457, 0.08638090000022203, 0.1020035000401549, 0.11968960001831874, 0.135107500012964, 0.15299319999758154, 0.16809590003686026, 0.18524870002875105, 0.2008225000463426, 0.2193663000361994, 0.23478659999091178, 0.25293240003520623, 0.26894660003017634, 0.2871283999993466, 0.3019785000360571, 0.3201060999999754, 0.3349245000281371, 0.35234620003029704, 0.36843560001580045, 0.38650160003453493, 0.4013696000329219, 0.4187905000289902, 0.4353090000222437, 0.45239990000845864, 0.46847550000529736, 0.48564960004296154, 0.501796500000637, 0.5189978000125848, 0.5351429000147618, 0.5531454000156373, 0.5682471000473015, 0.586146000016015, 0.6019914000062272, 0.6192346000461839, 0.6341555000399239, 0.6527575000072829, 0.6681365999975242, 0.6853575000423007, 0.7025317000225186, 0.7178047000197694, 0.7345172000350431, 0.7529628000338562, 0.7679983000271022, 0.7872135000070557, 0.8012337000109255, 0.8196035000146367, 0.8359182000276633, 0.851779600023292, 0.870081500033848, 0.8846103000105359, 0.9007567000226118, 0.9204434000421315, 0.9348533000447787, 0.9526697000255808, 0.9683006000122987, 0.985065900022164, 1.001966400013771, 1.018416300008539, 1.0348079000250436, 1.050781600002665, 1.0665108000393957, 1.0849782000295818, 1.1027423000195995, 1.1180681000114419, 1.1376770000206307, 1.1507190000265837, 1.1691842000000179, 1.1855676000122912, 1.2008693999960087, 1.219219200022053, 1.2334370000171475, 1.251246200001333, 1.2666565999970771, 1.2844455000013113, 1.3015900000464171, 1.3182796000037342, 1.3338388000265695, 1.3517145999940112, 1.3674825000343844, 1.3866971000097692, 1.4017908000387251, 1.4197245000395924, 1.434133400034625, 1.4527734000002965, 1.4678715000045486, 1.48634410003433, 1.5003598000039347, 1.5190637999912724, 1.5370773000176996, 1.5513291000388563, 1.567486000014469, 1.5849255000357516, 1.6010203000041656, 1.619889100024011, 1.6338176000281237, 1.6508883000351489, 1.6679546000086702, 1.6836430000257678, 1.7005668000201695, 1.7188756000250578, 1.7339882000233047, 1.7508097999962047, 1.7673680000007153, 1.7837752000195906, 1.8008633000426926, 1.8179907000157982, 1.8335459000081755, 1.851766600040719, 1.8671626000432298, 1.8850442999973893, 1.9009876000345685, 1.9183547000284307, 1.9357562999939546, 1.9512407000293024, 1.9677243000478484, 1.9851522000390105, 2.001380200032145, 2.0187104000360705, 2.034550800046418, 2.051296400022693, 2.069424000044819, 2.085765000025276, 2.100950499996543, 2.1188588000368327, 2.1338486000313424, 2.1510733000468463, 2.167473300010897]

S01;16;0;0;1;False;1000;True;;8;-123.05893363574297;drag;L;-4.4504323;-6.378008;-124.91;7.78;2.100514399993699;2.100585800013505;1685442217.2524626;1685442217.2642286;1685442218.0206425;1685442218.5209405;1685442219.5012708;1685442221.6026263;[0.0, 0.0, 0.0, 0.0, 0.0, 0.0, 0.0, 0.0, 0.0, 0.0, 0.0, 0.0, 0.0, 0.0, 0.0, 0.0, 0.0, 0.0, 0.0, 0.0, 0.0, 0.0, 0.0, 0.0, 0.0, 0.0, 0.0, 0.0, 0.0, 0.0, 0.0, 0.0, 0.0, 0.0, 0.0, 0.0, 0.0, 0.0, 0.0, 0.0, 0.0, 0.0, 0.0, 0.0, 0.0, 0.0, 0.0, 0.0, 0.0, 0.0, -0.19842692, -0.28346702, -0.36850712, -0.48189393, -0.59528077, -0.9070944, -1.1338681, -1.3039483, -1.5023751, -1.6157619, -1.6724553, -1.8141888, -1.9275757, -2.0976558, -2.211043, -2.2960827, -2.4378164, -2.5228565, -2.6362433, -2.8063235, -2.948057, -3.146484, -3.2882173, -3.4016042, -3.5716846, -3.6850712, -3.798458, -3.968538, -4.025232, -4.110272, -4.1386185, -4.166965, -4.1953115, -4.252005, -4.2803516, -4.337045, -4.365392, -4.3937387, -4.422086, -4.4504323, -4.4504323, -4.4504323, -4.4504323, -4.4504323, -4.4504323, -4.4504323, -4.4504323, -4.4504323, -4.4504323, -4.4504323, -4.4504323, -4.4504323, -4.4504323, -4.4504323, -4.4504323, -4.4504323, -4.4504323, -4.4504323, -4.4504323, -4.4504323, -4.4504323, -4.4504323, -4.4504323, -4.4504323, -4.4504323, -4.4504323, -4.4504323, -4.4504323, -4.4504323, -4.4504323, -4.4504323, -4.4504323, -4.4504323, -4.4504323, -4.4504323, -4.4504323];[0.0, 0.0, 0.0, 0.0, 0.0, 0.0, 0.0, 0.0, 0.0, 0.0, 0.0, 0.0, 0.0, 0.0, 0.0, 0.0, 0.0, 0.0, 0.0, 0.0, 0.0, 0.0, 0.0, 0.0, 0.0, 0.0, 0.0, 0.0, 0.0, 0.0, 0.0, 0.0, 0.0, 0.0, 0.0, 0.0, 0.0, 0.0, 0.0, 0.0, 0.0, 0.0, 0.0, 0.0, 0.0, 0.0, 0.0, 0.0, 0.0, 0.0, -0.3401604, -0.48189393, -0.56693405, -0.7086675, -0.85040104, -1.3606416, -1.7008021, -1.9559225, -2.1543493, -2.2677362, -2.3244295, -2.4378164, -2.57955, -2.7779768, -2.948057, -3.0897903, -3.3732576, -3.5716846, -3.770111, -4.025232, -4.166965, -4.422086, -4.5921655, -4.733899, -4.960673, -5.1024065, -5.300833, -5.5559535, -5.7260337, -5.924461, -6.0095005, -6.0661945, -6.151234, -6.2079277, -6.264621, -6.321315, -6.321315, -6.3496614, -6.378008, -6.378008, -6.378008, -6.378008, -6.378008, -6.378008, -6.378008, -6.378008, -6.378008, -6.378008, -6.378008, -6.378008, -6.378008, -6.378008, -6.378008, -6.378008, -6.378008, -6.378008, -6.378008, -6.378008, -6.378008, -6.378008, -6.378008, -6.378008, -6.378008, -6.378008, -6.378008, -6.378008, -6.378008, -6.378008, -6.378008, -6.378008, -6.378008, -6.378008, -6.378008, -6.378008, -6.378008, -6.378008];[0.0036162000033073127, 0.019013200013432652, 0.03387679997831583, 0.05226399999810383, 0.06804370001191273, 0.08520249999128282, 0.10131479997653514, 0.11927770002512261, 0.13463729998329654, 0.15136750001693144, 0.16793689999030903, 0.18554819998098537, 0.20090360002359375, 0.21827890002168715, 0.2350651000160724, 0.25353859999449924, 0.2678116000024602, 0.28603379998821765, 0.3019864999805577, 0.3192183999926783, 0.3355239999946207, 0.35445560002699494, 0.3688329000142403, 0.38572870002826676, 0.40141719998791814, 0.41933840001001954, 0.43503280001459643, 0.4528334999922663, 0.46832699998049065, 0.48541110003134236, 0.5016719999839552, 0.5197172000189312, 0.5353180000092834, 0.5531831000116654, 0.5679661000031047, 0.5860299000050873, 0.601230799977202, 0.6194898000103422, 0.636228299990762, 0.6539583000121638, 0.6689000999904238, 0.6861243000021204, 0.7021756999893114, 0.7198374000145122, 0.7343192999833263, 0.7526890999870375, 0.7689949999912642, 0.785389100026805, 0.8008385000284761, 0.8194622999872081, 0.8344218999845907, 0.8499492999981157, 0.8669821000075899, 0.884643999976106, 0.9013581000035629, 0.9191301999962889, 0.9353763000108302, 0.9529276000102982, 0.9683102000271901, 0.9852673999848776, 1.0012420000275597, 1.017119400028605, 1.0344366999925114, 1.053220900008455, 1.0671681999810971, 1.0849469000240788, 1.1019545000162907, 1.1189670999883674, 1.1342013999819756, 1.151337200019043, 1.1686585000134073, 1.1866160000208765, 1.2014270999934524, 1.2194470000104047, 1.2350550999981351, 1.2522120000212453, 1.2687477000290528, 1.284205199975986, 1.3022231999784708, 1.3194316999870352, 1.3335144000011496, 1.3521468000253662, 1.3667603000067174, 1.3850572999799624, 1.4007482000160962, 1.4184854999766685, 1.4356110999942757, 1.4511477000196464, 1.4679433000274003, 1.4861858999938704, 1.5006865999894217, 1.519170799991116, 1.5349755000206642, 1.5526224999921396, 1.5682744000223465, 1.586667200026568, 1.6013533999794163, 1.6191037999815308, 1.63419289997546, 1.6521628000191413, 1.6678419000236318, 1.685876699979417, 1.7019111000117846, 1.7204053000314161, 1.7343124999897555, 1.752679800032638, 1.7682927999994718, 1.785803999984637, 1.8008044000016525, 1.8196202000253834, 1.8362538000219502, 1.8519191999803297, 1.8691129999933764, 1.8859678999870084, 1.9019429000327364, 1.9194125999929383, 1.9347140000318177, 1.9541766999755055, 1.9680278000305407, 1.9860112000023946, 2.0011071999906562, 2.0186842000111938, 2.034686899976805, 2.052667299984023, 2.0696259000105783, 2.085178099980112]

S01;17;0;0;1;False;3000;True;;8;75.63924825560836;drag;L;1.9559225;6.5197415;73.3;6.81;1.8142665000050329;1.814352500019595;1685442222.4108467;1685442222.4309683;1685442223.1859303;1685442223.687812;1685442226.6857028;1685442228.5001447;[0.0, 0.0, 0.0, 0.0, 0.0, 0.0, 0.0, 0.0, 0.0, 0.0, 0.0, 0.0, 0.0, 0.0, 0.0, 0.0, 0.0, 0.0, 0.0, 0.0, 0.0, 0.0, 0.0, 0.0, 0.0, 0.0, 0.0, 0.0, 0.0, 0.0, 0.0, 0.0, 0.0, 0.0, 0.0, 0.0, 0.0, 0.0850401, 0.2267736, 0.3118137, 0.42520052, 0.5102406, 0.6236274, 0.73701423, 0.87874776, 0.9921345, 1.0771747, 1.1905615, 1.2189082, 1.2756016, 1.332295, 1.3606416, 1.3889884, 1.3889884, 1.417335, 1.417335, 1.4740285, 1.4740285, 1.5874153, 1.7008021, 1.7858423, 1.8141888, 1.8425356, 1.8425356, 1.8708823, 1.8708823, 1.8708823, 1.899229, 1.899229, 1.9275757, 1.9275757, 1.9559225, 1.9559225, 1.9559225, 1.9559225, 1.9559225, 1.9559225, 1.9559225, 1.9559225, 1.9559225, 1.9559225, 1.9559225, 1.9559225, 1.9559225, 1.9559225, 1.9559225, 1.9559225, 1.9559225, 1.9559225, 1.9559225, 1.9559225, 1.9559225, 1.9559225, 1.9559225, 1.9559225, 1.9559225, 1.9559225, 1.9559225, 1.9559225, 1.9559225, 1.9559225, 1.9559225, 1.9559225, 1.9559225, 1.9559225, 1.9559225, 1.9559225, 1.9559225, 1.9559225];[0.0, 0.0, 0.0, 0.0, 0.0, 0.0, 0.0, 0.0, 0.0, 0.0, 0.0, 0.0, 0.0, 0.0, 0.0, 0.0, 0.0, 0.0, 0.0, 0.0, 0.0, 0.0, 0.0, 0.0, 0.0, 0.0, 0.0, 0.0, 0.0, 0.0, 0.0, 0.0, 0.0, 0.0, 0.0, 0.0, 0.2267736, 0.6236274, 1.1338681, 1.4456817, 1.7291489, 2.012616, 2.4094696, 2.7212832, 3.2315238, 3.5433376, 3.8551514, 4.1953115, 4.337045, 4.478779, 4.7055526, 4.7905927, 4.875633, 4.932326, 4.9890194, 5.0740595, 5.1874466, 5.2441397, 5.5559535, 5.811074, 6.094541, 6.1795807, 6.264621, 6.321315, 6.3496614, 6.4063544, 6.434701, 6.434701, 6.4630475, 6.4630475, 6.4630475, 6.491395, 6.491395, 6.491395, 6.491395, 6.491395, 6.491395, 6.491395, 6.5197415, 6.5197415, 6.5197415, 6.5197415, 6.5197415, 6.5197415, 6.5197415, 6.5197415, 6.5197415, 6.5197415, 6.5197415, 6.5197415, 6.5197415, 6.5197415, 6.5197415, 6.5197415, 6.5197415, 6.5197415, 6.5197415, 6.5197415, 6.5197415, 6.5197415, 6.5197415, 6.5197415, 6.5197415, 6.5197415, 6.5197415, 6.5197415, 6.5197415, 6.5197415, 6.5197415];[0.004001099965535104, 0.016988899966236204, 0.03623999998671934, 0.05057929997565225, 0.06801019998965785, 0.08325500000501052, 0.10077839996665716, 0.11656789999688044, 0.1341035999939777, 0.15037759998813272, 0.16808069997932762, 0.1842853999696672, 0.20183839998207986, 0.217768199974671, 0.23491649999050424, 0.2511337000178173, 0.2693559000035748, 0.2841416000155732, 0.3014312000013888, 0.31782659998862073, 0.33492409996688366, 0.349699700018391, 0.3674048999673687, 0.3848305999999866, 0.40154799999436364, 0.4177256000111811, 0.4345126000116579, 0.44944609998492524, 0.4684055999969132, 0.48421099997358397, 0.50177839997923, 0.5158363999798894, 0.5349042000016198, 0.5508632999844849, 0.568053399969358, 0.5832209999789484, 0.6006297999992967, 0.6190837000031024, 0.6371286999783479, 0.6492283999687061, 0.6674507000134327, 0.6824070999864489, 0.6999246000195853, 0.7169969999813475, 0.7348216999671422, 0.7496764999814332, 0.7675420999876224, 0.7823038999922574, 0.801744399999734, 0.8168397999834269, 0.8340210000169463, 0.8512204000144266, 0.8674576000194065, 0.8821384999901056, 0.9013557999860495, 0.9168129999889061, 0.9379963999963365, 0.9499020000221208, 0.9673034999868833, 0.9836808000109158, 1.0008799000061117, 1.0156803000136279, 1.036229400022421, 1.0505452000070363, 1.0669388999813236, 1.083262800006196, 1.099743099999614, 1.1165913000004366, 1.1331187000032514, 1.1495468000066467, 1.1677250000066124, 1.1827155000064522, 1.2005090999882668, 1.2169429999776185, 1.2339855000027455, 1.2516080000204965, 1.267568700015545, 1.2828598999767564, 1.3031488999840803, 1.3161108000203967, 1.3338113999925554, 1.3503960999660194, 1.366759299999103, 1.3827064000070095, 1.4010348999872804, 1.4179978999891318, 1.4343736000009812, 1.4486718999687582, 1.467425099981483, 1.4833663000026718, 1.50069529999746, 1.5165417999960482, 1.5339992999797687, 1.5502520999871194, 1.5670165999908932, 1.583185900002718, 1.6016154999961145, 1.6171914999722503, 1.6341402999823913, 1.6515076999785379, 1.667725600011181, 1.6832250999868847, 1.7026933999732137, 1.7156224999926053, 1.7339697999996133, 1.7496058999677189, 1.766124999965541, 1.7831401000148617, 1.8000230999896303]

