subj;trial;block;prior;kappa;ct;delay;fix;keypressed;R;T_Angle;resp_mod;choice_x;choice_y;init_resp_angle;choiceAngle;choiceR;RT;MT;ts_b;ts_f;ts_p;ts_d;ts_r;ts_e;m_pos_x;m_pos_y;m_clock
S03;0;0;0;1;False;1000;False;;8;109.642285059446;drag;L;nan;nan;nan;nan;0.0036450999905355275;0.0037675000494346023;1685460208.874735;1685460208.8907378;1685460209.646571;1685460210.2812254;1685460211.2482944;1685460211.2526913;[];[];[]
S03;0;0;0;1;False;1000;True;;8;122.87282888194464;drag;L;-4.5921655;5.697687;128.87;7.32;5.6985874000238255;5.698694900027476;1685460211.8207035;1685460211.8248181;1685460212.5792966;1685460213.0819921;1685460214.0630913;1685460219.7617972;[0.0, 0.0, 0.0, 0.0, 0.0, 0.0, 0.0, 0.0, 0.0, 0.0, 0.0, 0.0, 0.0, 0.0, 0.0, 0.0, 0.0, 0.0, 0.0, 0.0, 0.0, 0.0, 0.0, 0.0, 0.0, 0.0, 0.0, 0.0, 0.0, 0.0, 0.0, 0.0, 0.0, 0.0, 0.0, 0.0, 0.0, 0.0, 0.0, 0.0, 0.0, 0.0, 0.0, 0.0, 0.0, 0.0, 0.0, 0.0, 0.0, 0.0, 0.0, 0.0, 0.0, 0.0, 0.0, 0.0, 0.0, 0.0, 0.0, 0.0, 0.0, 0.0, 0.0, 0.0, 0.0, 0.0, 0.0, 0.0, 0.0, 0.0, 0.0, 0.0, 0.0, 0.0, 0.0, 0.0, 0.0, 0.0, 0.0, 0.0, 0.0, 0.0, 0.0, 0.0, 0.0, 0.0, 0.0, 0.0, 0.0, 0.0, 0.0, 0.0, 0.0, 0.0, 0.0, 0.0, 0.0, 0.0, 0.0, 0.0, 0.0, 0.0, 0.0, 0.0, 0.0, 0.0, 0.0, 0.0, 0.0, 0.0, 0.0, 0.0, 0.0, 0.0, 0.0, 0.0, 0.0, 0.0, 0.0, 0.0, 0.0, 0.0, 0.0, 0.0, 0.0, 0.0, 0.0, 0.0, 0.0, 0.0, 0.0, 0.0, 0.0, 0.0, 0.0, 0.0, 0.0, 0.0, 0.0, 0.0, 0.0, 0.0, 0.0, 0.0, 0.0, 0.0, 0.0, 0.0, 0.0, 0.0, 0.0, 0.0, 0.0, 0.0, 0.0, 0.0, 0.0, 0.0, 0.0, 0.0, 0.0, 0.0, 0.0, 0.0, 0.0, 0.0, 0.0, 0.0, 0.0, 0.0, 0.0, 0.0, 0.0, 0.0, 0.0, 0.0, 0.0, 0.0, 0.0, 0.0, 0.0, 0.0, 0.0, 0.0, 0.0, 0.0, 0.0, 0.0, 0.0, 0.0, 0.0, 0.0, 0.0, 0.0, 0.0, 0.0, 0.0, 0.0, 0.0, 0.0, 0.0, 0.0, 0.0, 0.0, 0.0, 0.0, 0.0, 0.0, 0.0, 0.0, 0.0, 0.0, 0.0, 0.0, 0.0, 0.0, 0.0, 0.0, 0.0, 0.0, 0.0, 0.0, 0.0, 0.0, 0.0, 0.0, 0.0, 0.0, 0.0, 0.0, 0.0, 0.0, 0.0, 0.0, 0.0, 0.0, 0.0, 0.0, 0.0, 0.0, 0.0, 0.0, 0.0, 0.0, 0.0, 0.0, 0.0, 0.0, 0.0, 0.0, 0.0, 0.0, 0.0, 0.0, 0.0, 0.0, 0.0, 0.0, 0.0, 0.0, 0.0, 0.0, 0.0, 0.0, 0.0, 0.0, 0.0, 0.0, 0.0, 0.0, 0.0, 0.0, 0.0, -0.2551203, -0.56693405, -0.93544114, -1.5023751, -1.8425356, -2.0409625, -2.2677362, -2.4378164, -2.8913634, -3.5716846, -4.166965, -4.620512, -4.847286, -4.9890194, -5.130753, -5.1591, -5.1874466, -5.1874466, -5.1874466, -5.2441397, -5.2441397, -5.2441397, -5.2441397, -5.2441397, -5.2724867, -5.2724867, -5.300833, -5.32918, -5.3575263, -5.4425664, -5.527607, -5.5843005, -5.6409936, -5.66934, -5.66934, -5.66934, -5.66934, -5.66934, -5.612647, -5.5559535, -5.4425664, -5.3575263, -5.300833, -5.215793, -5.1591, -5.0740595, -4.9039793, -4.7905927, -4.7055526, -4.648859, -4.648859, -4.5921655, -4.5921655, -4.5921655, -4.5921655, -4.5921655, -4.5921655, -4.5921655, -4.5921655, -4.5921655, -4.5921655, -4.5921655, -4.5921655, -4.5921655, -4.5921655, -4.5921655, -4.5921655, -4.5921655, -4.5921655];[0.0, 0.0, 0.0, 0.0, 0.0, 0.0, 0.0, 0.0, 0.0, 0.0, 0.0, 0.0, 0.0, 0.0, 0.0, 0.0, 0.0, 0.0, 0.0, 0.0, 0.0, 0.0, 0.0, 0.0, 0.0, 0.0, 0.0, 0.0, 0.0, 0.0, 0.0, 0.0, 0.0, 0.0, 0.0, 0.0, 0.0, 0.0, 0.0, 0.0, 0.0, 0.0, 0.0, 0.0, 0.0, 0.0, 0.0, 0.0, 0.0, 0.0, 0.0, 0.0, 0.0, 0.0, 0.0, 0.0, 0.0, 0.0, 0.0, 0.0, 0.0, 0.0, 0.0, 0.0, 0.0, 0.0, 0.0, 0.0, 0.0, 0.0, 0.0, 0.0, 0.0, 0.0, 0.0, 0.0, 0.0, 0.0, 0.0, 0.0, 0.0, 0.0, 0.0, 0.0, 0.0, 0.0, 0.0, 0.0, 0.0, 0.0, 0.0, 0.0, 0.0, 0.0, 0.0, 0.0, 0.0, 0.0, 0.0, 0.0, 0.0, 0.0, 0.0, 0.0, 0.0, 0.0, 0.0, 0.0, 0.0, 0.0, 0.0, 0.0, 0.0, 0.0, 0.0, 0.0, 0.0, 0.0, 0.0, 0.0, 0.0, 0.0, 0.0, 0.0, 0.0, 0.0, 0.0, 0.0, 0.0, 0.0, 0.0, 0.0, 0.0, 0.0, 0.0, 0.0, 0.0, 0.0, 0.0, 0.0, 0.0, 0.0, 0.0, 0.0, 0.0, 0.0, 0.0, 0.0, 0.0, 0.0, 0.0, 0.0, 0.0, 0.0, 0.0, 0.0, 0.0, 0.0, 0.0, 0.0, 0.0, 0.0, 0.0, 0.0, 0.0, 0.0, 0.0, 0.0, 0.0, 0.0, 0.0, 0.0, 0.0, 0.0, 0.0, 0.0, 0.0, 0.0, 0.0, 0.0, 0.0, 0.0, 0.0, 0.0, 0.0, 0.0, 0.0, 0.0, 0.0, 0.0, 0.0, 0.0, 0.0, 0.0, 0.0, 0.0, 0.0, 0.0, 0.0, 0.0, 0.0, 0.0, 0.0, 0.0, 0.0, 0.0, 0.0, 0.0, 0.0, 0.0, 0.0, 0.0, 0.0, 0.0, 0.0, 0.0, 0.0, 0.0, 0.0, 0.0, 0.0, 0.0, 0.0, 0.0, 0.0, 0.0, 0.0, 0.0, 0.0, 0.0, 0.0, 0.0, 0.0, 0.0, 0.0, 0.0, 0.0, 0.0, 0.0, 0.0, 0.0, 0.0, 0.0, 0.0, 0.0, 0.0, 0.0, 0.0, 0.0, 0.0, 0.0, 0.0, 0.0, 0.0, 0.0, 0.0, 0.0, 0.0, 0.0, 0.0, 0.0, 0.0, 0.0, 0.0, 0.0, 0.0, 0.0, 0.0, 0.0, 0.0, 0.0, 0.0, 0.0, 0.2267736, 0.53858733, 0.93544114, 1.5874153, 2.012616, 2.2960827, 2.57955, 2.7779768, 3.3732576, 4.3937387, 5.4425664, 6.491395, 7.143369, 7.6536093, 7.99377, 8.022117, 8.07881, 8.107157, 8.107157, 8.107157, 8.107157, 8.107157, 8.107157, 8.107157, 8.107157, 8.107157, 8.07881, 8.050464, 7.9654226, 7.8520365, 7.710303, 7.3984895, 6.9165955, 6.7465153, 6.633128, 6.548088, 6.491395, 6.4630475, 6.434701, 6.4063544, 6.3496614, 6.292968, 6.264621, 6.2079277, 6.1795807, 6.094541, 5.9528074, 5.8394203, 5.782727, 5.7260337, 5.7260337, 5.697687, 5.697687, 5.697687, 5.697687, 5.697687, 5.697687, 5.697687, 5.697687, 5.697687, 5.697687, 5.697687, 5.697687, 5.697687, 5.697687, 5.697687, 5.697687, 5.697687, 5.697687];[0.0041514000040479004, 0.01830950001021847, 0.0342100000125356, 0.05104900000151247, 0.06747429998358712, 0.08573009999236092, 0.10082729998975992, 0.11821019998751581, 0.13461479998659343, 0.15243989997543395, 0.167694500007201, 0.18372869997983798, 0.20022790000075474, 0.21895140002015978, 0.2342464000103064, 0.25223809998715296, 0.2676200999994762, 0.28477219998603687, 0.2999028000049293, 0.3177209999994375, 0.33455319999484345, 0.35204670001985505, 0.36802360002184287, 0.38392679998651147, 0.4002576000057161, 0.41950110002653673, 0.43401229998562485, 0.44963190000271425, 0.4670062999939546, 0.48400779999792576, 0.5012349999742582, 0.5187214000034146, 0.534769400022924, 0.5523523000301793, 0.5676120999851264, 0.5834680999978445, 0.6011234999750741, 0.6180905000073835, 0.634361699980218, 0.6519636000157334, 0.6662646000040695, 0.6850653000292368, 0.7011801999760792, 0.7181452999939211, 0.7345814000000246, 0.7524465000024065, 0.7672912999987602, 0.7858841000124812, 0.8018640999798663, 0.8186660999781452, 0.8348086000187322, 0.8514116000151262, 0.8677371999947354, 0.8842632999876514, 0.9013524000183679, 0.9178320000064559, 0.9330863999784924, 0.951592100027483, 0.9673548000282608, 0.9853863000171259, 1.0003272999892943, 1.0188857999746688, 1.0343432999798097, 1.0522772999829613, 1.067447200010065, 1.084643899986986, 1.1008318000240251, 1.1182379000238143, 1.1336676999926567, 1.151988200028427, 1.1675098999985494, 1.1843845000257716, 1.199505999975372, 1.2171480000251904, 1.2327796000172384, 1.2515099000302143, 1.2671649000258185, 1.2840572000131942, 1.2990748999873176, 1.3175771000096574, 1.3332447999855503, 1.351559000031557, 1.3669185999897309, 1.3849242000142112, 1.401032900030259, 1.417739900003653, 1.4331614000257105, 1.4524355999892578, 1.467051799991168, 1.4846424999996088, 1.5008101999992505, 1.519440800009761, 1.5337217000196688, 1.5528597999946214, 1.5677649999852292, 1.5853272000094876, 1.5991434999741614, 1.6172571000060998, 1.6335107000195421, 1.6505861000041477, 1.6669822999974713, 1.6846785999950953, 1.7017315999837592, 1.718607200018596, 1.734113199985586, 1.7523325000074692, 1.7663979000062682, 1.785307099984493, 1.800644300004933, 1.816867200017441, 1.8351286000106484, 1.851984300010372, 1.8676867000176571, 1.8855351000092924, 1.9014599000220187, 1.9187390999868512, 1.933762900007423, 1.9524698000168428, 1.9672461000154726, 1.9855761000071652, 2.000350599992089, 2.017123800003901, 2.0347611000179313, 2.0524522999767214, 2.067387900024187, 2.0859702000161633, 2.100294000003487, 2.117997399996966, 2.1338049999903888, 2.1512481999816373, 2.1674665000173263, 2.1839346999768168, 2.2005739000160247, 2.2189078999799676, 2.2345675000105985, 2.251208300003782, 2.267994900001213, 2.2856536000035703, 2.3002273000311106, 2.319024400028866, 2.33404009998776, 2.3523198000038974, 2.3680190999875776, 2.384552299976349, 2.3996931000147015, 2.417775099980645, 2.4334149999776855, 2.451170700020157, 2.4672985000070184, 2.483854199992493, 2.5008085999870673, 2.518579400028102, 2.5335027999826707, 2.5521023999899626, 2.565760300029069, 2.5841594000230543, 2.5990881000179797, 2.617752799997106, 2.6341927999746986, 2.6517744000302628, 2.667193599976599, 2.684305500006303, 2.7014157000230625, 2.7187069000210613, 2.7347894000122324, 2.751933999999892, 2.7669292999780737, 2.7855753999901935, 2.8004345999797806, 2.818902999977581, 2.834288200014271, 2.8505544000072405, 2.8674020000034943, 2.885981300030835, 2.901165099989157, 2.9176798000116833, 2.935619299998507, 2.952180700027384, 2.9674770000274293, 2.9847331999917515, 3.0009227999835275, 3.0178636999917217, 3.0334783000289463, 3.0505338999792, 3.06752719997894, 3.0849344999878667, 3.1001481999992393, 3.1185277000186034, 3.1333814000245184, 3.1518581000273116, 3.1680558000225574, 3.1844458000268787, 3.201200300012715, 3.219235500029754, 3.2332491999841295, 3.2511701000039466, 3.2667828000267036, 3.2845073000062257, 3.3010862999944948, 3.3174325000145473, 3.3349318000255153, 3.351073500001803, 3.367682699987199, 3.3849413000280038, 3.401122300012503, 3.4191996000008658, 3.4335331000038423, 3.4516526000224985, 3.467587999999523, 3.484266599989496, 3.5000085000065155, 3.517343899991829, 3.533652500016615, 3.5511345000122674, 3.567745100008324, 3.5860531000071205, 3.6009263999876566, 3.6182779999799095, 3.6337393000139855, 3.650978700025007, 3.6671768000232987, 3.684774400026072, 3.69994860002771, 3.717854399990756, 3.733255899976939, 3.7502056999946944, 3.766484000021592, 3.783675700018648, 3.800015499989968, 3.8167711999849416, 3.83358059998136, 3.8515909999841824, 3.8682886000024155, 3.8861518999910913, 3.900292399979662, 3.918045600003097, 3.934624799992889, 3.9519497000146657, 3.9672705000266433, 3.986252599977888, 4.0005676000146195, 4.018974400009029, 4.034264300018549, 4.050924399984069, 4.06740489997901, 4.0855299999821, 4.1005639000213705, 4.118810200016014, 4.133648200018797, 4.15170530002797, 4.167643600027077, 4.184852399979718, 4.199784800002817, 4.218318200029898, 4.23328639997635, 4.252928100002464, 4.266798899974674, 4.284504099981859, 4.3006498999893665, 4.318777100008447, 4.334535799978767, 4.351758099975996, 4.366820399998687, 4.384068300016224, 4.400286699994467, 4.417207500024233, 4.4335315999924205, 4.451538300025277, 4.466821799986064, 4.484197299985681, 4.5002333000302315, 4.51844950002851, 4.535319300019182, 4.5506802999880165, 4.566229699994437, 4.584615900006611, 4.599759000004269, 4.6172273000120185, 4.633705899992492, 4.650527600024361, 4.666879400028847, 4.6843341999920085, 4.700137200008612, 4.717796900018584, 4.732928399986122, 4.751108800002839, 4.766811300010886, 4.785604099975899, 4.8007939999806695, 4.8178235000232235, 4.833414699998684, 4.850825699977577, 4.866837800014764, 4.884228600014467, 4.900136000011116, 4.917714899987914, 4.933540099998936, 4.951889000018127, 4.966912499978207, 4.985986399988178, 4.999169000016991, 5.018290999985766, 5.035263500001747, 5.050176799995825, 5.067383799992967, 5.083577800018247, 5.099588099983521, 5.116617600026075, 5.133490499982145, 5.1505477000027895, 5.166315599984955, 5.1842624000273645, 5.201609499985352, 5.21653510001488, 5.233011099975556, 5.250942700018641, 5.267059799982235, 5.283927600015886, 5.299366399995051, 5.316402999975253, 5.335179699992295, 5.3497477999771945, 5.366114099975675, 5.383291799982544, 5.400798099988606, 5.417712400027085, 5.432818499975838, 5.449966999993194, 5.466711100016255, 5.483126499981154, 5.498849900031928, 5.517441799980588, 5.533624599978793, 5.5509276000084355, 5.5667629999807104, 5.584632300015073, 5.60149959998671, 5.61769759998424, 5.634883799997624, 5.650933500030078, 5.6670075000147335, 5.68453710002359]
S03;1;0;0;1;False;3000;True;;8;-66.52442591325332;drag;L;3.6000311;-5.782727;-58.1;6.81;1.5655568999936804;1.5656220000237226;1685460220.4604473;1685460220.4745069;1685460221.2290642;1685460221.7315202;1685460224.729021;1685460226.2948322;[0.0, 0.0, 0.0, 0.0, 0.0, 0.0, 0.0, 0.0, 0.0, 0.0, 0.0, 0.0, 0.0, 0.0, 0.0, 0.0, 0.0, 0.0, 0.0, 0.0, 0.0, 0.0, 0.0, 0.0, 0.0, 0.0, 0.0, 0.0, 0.0, 0.0, 0.0, 0.0, 0.0, 0.0, 0.0, 0.0, 0.0, 0.0, 0.0283467, 0.19842692, 0.42520052, 0.56693405, 0.79370767, 0.9921345, 1.1622148, 1.4456817, 1.6441087, 1.899229, 2.0409625, 2.182696, 2.3244295, 2.381123, 2.466163, 2.5228565, 2.57955, 2.66459, 2.7779768, 2.948057, 3.1748307, 3.2882173, 3.4016042, 3.4582977, 3.5433376, 3.6283777, 3.6567245, 3.6850712, 3.6850712, 3.6850712, 3.6850712, 3.6850712, 3.6850712, 3.6850712, 3.6850712, 3.6850712, 3.6850712, 3.6850712, 3.6850712, 3.6567245, 3.6000311, 3.6000311, 3.6000311, 3.6000311, 3.6000311, 3.6000311, 3.6000311, 3.6000311, 3.6000311, 3.6000311, 3.6000311, 3.6000311, 3.6000311, 3.6000311, 3.6000311, 3.6000311];[0.0, 0.0, 0.0, 0.0, 0.0, 0.0, 0.0, 0.0, 0.0, 0.0, 0.0, 0.0, 0.0, 0.0, 0.0, 0.0, 0.0, 0.0, 0.0, 0.0, 0.0, 0.0, 0.0, 0.0, 0.0, 0.0, 0.0, 0.0, 0.0, 0.0, 0.0, 0.0, 0.0, 0.0, 0.0, 0.0, 0.0, 0.0, -0.0566934, -0.2267736, -0.4535472, -0.59528077, -0.79370767, -0.93544114, -1.1055214, -1.3606416, -1.4740285, -1.7008021, -1.8425356, -1.9275757, -2.0409625, -2.0976558, -2.182696, -2.211043, -2.2393894, -2.3527763, -2.4945097, -2.7212832, -3.146484, -3.4016042, -3.7417645, -3.968538, -4.252005, -4.733899, -4.932326, -5.1024065, -5.300833, -5.3575263, -5.41422, -5.4992604, -5.5559535, -5.66934, -5.782727, -5.782727, -5.782727, -5.782727, -5.782727, -5.782727, -5.782727, -5.782727, -5.782727, -5.782727, -5.782727, -5.782727, -5.782727, -5.782727, -5.782727, -5.782727, -5.782727, -5.782727, -5.782727, -5.782727, -5.782727, -5.782727];[0.003771300020162016, 0.017101000004913658, 0.03573730000061914, 0.05034979997435585, 0.06905739998910576, 0.08431010000640526, 0.10287469998002052, 0.11768929997924715, 0.13583099999232218, 0.15092709998134524, 0.16769879998173565, 0.18388490000506863, 0.20156289997976273, 0.2180198000278324, 0.23385790002066642, 0.25074839999433607, 0.2671785000129603, 0.2832504999823868, 0.30137469997862354, 0.31733779999194667, 0.33486900001298636, 0.3510658000013791, 0.36757639999268577, 0.3835331000154838, 0.4020832999958657, 0.41833860002225265, 0.43547309999121353, 0.4514713999815285, 0.4692501000245102, 0.48438849998638034, 0.5023408000124618, 0.5171403000131249, 0.5353480000048876, 0.5505667999968864, 0.5670337000046857, 0.5828817000146955, 0.6011386999743991, 0.616846400022041, 0.6344701999914832, 0.650919099978637, 0.6688856999971904, 0.6863509999820963, 0.7008630000054836, 0.7165310999844223, 0.733686999999918, 0.7508664000197314, 0.7691083999816328, 0.7846218000049703, 0.800387600029353, 0.8164051999920048, 0.8351160999736749, 0.8505860000150278, 0.8701508999802172, 0.883378200000152, 0.9010173000278883, 0.9185823000152595, 0.9345697999815457, 0.9504572000005282, 0.9667731000226922, 0.9848683000309393, 1.0025730999768712, 1.0167092999909073, 1.0341384999919683, 1.052115100028459, 1.0671845999895595, 1.0841857999912463, 1.1010011999751441, 1.1168915000162087, 1.133705199987162, 1.1499484999803826, 1.1677263000165112, 1.1838733999757096, 1.2011785000213422, 1.2172635999741033, 1.2343595999991521, 1.2515609000110999, 1.268290199979674, 1.2838371000252664, 1.3024098000023514, 1.3173447999870405, 1.334986999980174, 1.3497094999765977, 1.3675936000072397, 1.3845555000007153, 1.4024944999837317, 1.4173856999841519, 1.4357663000118919, 1.450426299998071, 1.467632699990645, 1.483177500020247, 1.5007035000016913, 1.5172650999738835, 1.5349923999747261, 1.5493584999931045]
S03;2;0;0;1;False;3000;True;;8;-124.26313904649943;drag;L;-5.1024065;-6.1228876;-129.81;7.97;1.4671575000393204;1.4672196000465192;1685460227.0838463;1685460227.0908039;1685460227.845715;1685460228.345985;1685460231.3434508;1685460232.810737;[0.0, 0.0, 0.0, 0.0, 0.0, 0.0, 0.0, 0.0, 0.0, 0.0, 0.0, 0.0, 0.0, 0.0, 0.0, 0.0, 0.0, 0.0, 0.0, 0.0, 0.0, 0.0, 0.0, 0.0, 0.0, 0.0, 0.0, 0.0, 0.0, 0.0, 0.0, 0.0, 0.0, 0.0, 0.0, 0.0, 0.0, 0.0, 0.5102406, 0.6236274, 0.7086675, 0.79370767, 0.79370767, 0.8220543, 0.87874776, 0.93544114, 1.0204812, 1.1338681, 1.1905615, 1.2756016, 1.332295, 1.3606416, 1.417335, 1.4456817, 1.4456817, 1.1055214, -0.0283467, -1.417335, -2.0409625, -2.7496302, -3.6000311, -4.025232, -4.422086, -4.5921655, -4.762246, -4.932326, -5.017366, -5.0740595, -5.1024065, -5.1024065, -5.1024065, -5.1024065, -5.1024065, -5.1024065, -5.1024065, -5.1024065, -5.1024065, -5.1024065, -5.1024065, -5.1024065, -5.1024065, -5.1024065, -5.1024065, -5.1024065, -5.1024065, -5.1024065, -5.1024065, -5.1024065];[0.0, 0.0, 0.0, 0.0, 0.0, 0.0, 0.0, 0.0, 0.0, 0.0, 0.0, 0.0, 0.0, 0.0, 0.0, 0.0, 0.0, 0.0, 0.0, 0.0, 0.0, 0.0, 0.0, 0.0, 0.0, 0.0, 0.0, 0.0, 0.0, 0.0, 0.0, 0.0, 0.0, 0.0, 0.0, 0.0, 0.0, 0.0, 1.1055214, 1.3889884, 1.4740285, 1.5874153, 1.6157619, 1.6441087, 1.7008021, 1.7574955, 1.8708823, 1.984269, 2.0693092, 2.182696, 2.211043, 2.2677362, 2.2960827, 2.2960827, 2.1543493, 1.5874153, 0.14173351, -1.1338681, -1.7008021, -2.4945097, -3.4016042, -3.8268046, -4.2803516, -4.5071254, -4.7905927, -5.215793, -5.5843005, -5.896114, -6.1228876, -6.1228876, -6.1228876, -6.1228876, -6.1228876, -6.1228876, -6.1228876, -6.1228876, -6.1228876, -6.1228876, -6.1228876, -6.1228876, -6.1228876, -6.1228876, -6.1228876, -6.1228876, -6.1228876, -6.1228876, -6.1228876, -6.1228876];[0.003786900022532791, 0.017428799998015165, 0.034443600045051426, 0.05069330002879724, 0.0675766000058502, 0.08354240003973246, 0.10056610003812239, 0.1175234000547789, 0.13392800005385652, 0.1503303000354208, 0.16767080000136048, 0.1844911000225693, 0.20140530000207946, 0.21741900005144998, 0.23438560002250597, 0.25150550005491823, 0.26836980000371113, 0.28476740000769496, 0.30161690001841635, 0.31677530001616105, 0.33480960002634674, 0.3508078000159003, 0.3683202000102028, 0.38432880002073944, 0.40135370002826676, 0.4173094000434503, 0.4343465000274591, 0.45091280003543943, 0.4678734000190161, 0.4838793000089936, 0.5013777000131086, 0.5183485000161454, 0.5343356000375934, 0.5512995000462979, 0.5673760000499897, 0.5843184000113979, 0.6013185000047088, 0.6176958000287414, 0.635004400042817, 0.6509139000554569, 0.6685026000486687, 0.6855524000129662, 0.7019107000087388, 0.7177141000283882, 0.734319300041534, 0.7513820000458509, 0.7681702000554651, 0.7844796000281349, 0.8018531000125222, 0.8177938000299037, 0.8343872000114061, 0.8511178000480868, 0.8684738000156358, 0.8839264000416733, 0.901279500045348, 0.9175571000087075, 0.9350522000459023, 0.9510033000260592, 0.9678774000494741, 0.984348600031808, 1.001630800019484, 1.017139400006272, 1.0351487000007182, 1.0511535000405274, 1.0681620000395924, 1.0846742000430822, 1.1007567000342533, 1.1174525000387803, 1.1346336000133306, 1.1506537000532262, 1.167785300000105, 1.18378100002883, 1.2020521000376903, 1.2182928000111133, 1.2348742000176571, 1.2518378000240773, 1.268832600035239, 1.2843490000232123, 1.3013386000529863, 1.318375000031665, 1.3356985000427812, 1.3515668000327423, 1.3682593000121415, 1.3847619000007398, 1.4014021000475623, 1.418232000025455, 1.43534520000685, 1.4513381000142545]
S03;3;0;0;1;False;1000;True;;8;-48.48291514521885;drag;L;5.7260337;-6.1228876;-46.92;8.38;2.5995548000209965;2.59962190000806;1685460233.554067;1685460233.573128;1685460234.3278377;1685460234.8302834;1685460235.8095412;1685460238.4097943;[0.0, 0.0, 0.0, 0.0, 0.0, 0.0, 0.0, 0.0, 0.0, 0.0, 0.0, 0.0, 0.0, 0.0, 0.0, 0.0, 0.0, 0.0, 0.0, 0.0, 0.0, 0.0, 0.0, 0.0, 0.0, 0.0, 0.0, 0.0, 0.0, 0.0, 0.0, 0.0, 0.0, 0.0, 0.0, 0.0, 0.0, 0.0, 0.0, 0.0, 0.0, 0.0, 0.0, 0.0, 0.0, 0.0, 0.0, -0.0283467, -0.0283467, -0.0566934, -0.0566934, -0.0850401, -0.0850401, -0.0850401, -0.0850401, -0.0850401, -0.0850401, -0.0850401, -0.0850401, -0.0850401, -0.0850401, -0.0850401, -0.0850401, -0.0850401, -0.0850401, -0.0850401, -0.0850401, -0.0850401, -0.0850401, -0.0850401, -0.0850401, -0.0850401, -0.0850401, -0.0850401, -0.0850401, -0.0283467, 0.0, 0.0283467, 0.0566934, 0.0566934, 0.0850401, 0.0850401, 0.1133868, 0.14173351, 0.14173351, 0.14173351, 0.14173351, 0.14173351, 0.1700802, 0.19842692, 0.3118137, 1.7291489, 3.0047503, 3.7417645, 3.968538, 4.0535784, 4.110272, 4.1386185, 4.2803516, 5.0740595, 5.3858733, 5.5559535, 5.6409936, 5.8677673, 8.844172, 11.026867, 11.111907, 11.140253, 11.140253, 11.140253, 10.970174, 10.630013, 10.459932, 10.403239, 10.374893, 10.346546, 10.289852, 10.261506, 10.204813, 10.204813, 10.204813, 10.204813, 10.204813, 10.204813, 10.204813, 10.204813, 10.204813, 10.204813, 10.204813, 9.921346, 9.241024, 8.702437, 8.532357, 8.418971, 8.16385, 8.022117, 7.937076, 7.7669964, 7.7386494, 7.681956, 7.6536093, 7.6252627, 7.540222, 7.483529, 7.426836, 7.341796, 7.313449, 7.2000623, 6.888248, 6.378008, 5.981154, 5.8677673, 5.811074, 5.782727, 5.7260337, 5.7260337];[0.0, 0.0, 0.0, 0.0, 0.0, 0.0, 0.0, 0.0, 0.0, 0.0, 0.0, 0.0, 0.0, 0.0, 0.0, 0.0, 0.0, 0.0, 0.0, 0.0, 0.0, 0.0, 0.0, 0.0, 0.0, 0.0, 0.0, 0.0, 0.0, 0.0, 0.0, 0.0, 0.0, 0.0, 0.0, 0.0, 0.0, 0.0, 0.0, 0.0, 0.0, 0.0, 0.0, 0.0, 0.0, 0.0, 0.0, 0.0, 0.0283467, 0.0566934, 0.0850401, 0.1133868, 0.1133868, 0.1133868, 0.1133868, 0.1133868, 0.1133868, 0.1133868, 0.1133868, 0.1133868, 0.1133868, 0.1133868, 0.1133868, 0.1133868, 0.1133868, 0.1133868, 0.1133868, 0.1133868, 0.1133868, 0.1133868, 0.1133868, 0.1133868, 0.1133868, 0.1133868, 0.0850401, 0.0283467, 0.0, -0.0283467, -0.0566934, -0.0850401, -0.0850401, -0.1133868, -0.1133868, -0.14173351, -0.14173351, -0.14173351, -0.14173351, -0.14173351, -0.1700802, -0.1700802, -0.28346702, -1.5874153, -2.83467, -3.6283777, -3.8551514, -3.911845, -3.996885, -4.025232, -4.1386185, -4.733899, -4.960673, -5.0740595, -5.130753, -5.3575263, -8.277237, -9.411105, -9.411105, -9.411105, -9.411105, -9.411105, -9.411105, -9.354411, -9.297718, -9.297718, -9.297718, -9.269372, -9.269372, -9.269372, -9.269372, -9.269372, -9.269372, -9.269372, -9.269372, -9.269372, -9.269372, -9.269372, -9.269372, -9.269372, -9.269372, -9.042598, -8.447317, -7.880383, -7.710303, -7.5685697, -7.341796, -7.2000623, -7.086675, -6.9165955, -6.8599014, -6.8032084, -6.774862, -6.774862, -6.7181687, -6.6898212, -6.6614747, -6.6047816, -6.6047816, -6.6047816, -6.5764346, -6.4630475, -6.264621, -6.2079277, -6.1795807, -6.151234, -6.1228876, -6.1228876];[0.004379099991638213, 0.02141679998021573, 0.03557800000999123, 0.052407999988645315, 0.0675453000003472, 0.08597529999678954, 0.10221260000253096, 0.11953670001821592, 0.13404319999972358, 0.151262300030794, 0.16756959998747334, 0.18593400000827387, 0.20043269998859614, 0.21753129997523502, 0.2332579999929294, 0.2507074000313878, 0.26880700001493096, 0.28489800001261756, 0.30074730003252625, 0.3188580999849364, 0.3372131999931298, 0.3540000999928452, 0.36781269998755306, 0.38591020001331344, 0.40278940001735464, 0.420275499986019, 0.43521209998289123, 0.4532220999826677, 0.4682611000025645, 0.4868995000142604, 0.5033291000290774, 0.5199020000291057, 0.5362716999952681, 0.554300100018736, 0.5690723999869078, 0.5868622999987565, 0.6021537000196986, 0.6193471000296995, 0.6358180000097491, 0.6547332999762148, 0.6694418999832124, 0.6864383000065573, 0.7029496000031941, 0.7201610999763943, 0.7356854000245221, 0.7520154999801889, 0.7672160000074655, 0.7850978000205941, 0.8004572999780066, 0.8195274000172503, 0.8346340000280179, 0.8515489000128582, 0.8676536999992095, 0.8861608000006527, 0.9021470000152476, 0.918891999986954, 0.934017900028266, 0.9525396000244655, 0.9690899000270292, 0.9857931000296958, 1.0009159999899566, 1.0180513000232168, 1.0348841000231914, 1.0527000000001863, 1.0669313999824226, 1.085870300012175, 1.1019814999890514, 1.1197491000057198, 1.1354328999877907, 1.1525009000324644, 1.1686566999997012, 1.1865446000010706, 1.2018699999898672, 1.2198998000239953, 1.2351980999810621, 1.2523921999963932, 1.2684170000138693, 1.2854310999973677, 1.3002490000217222, 1.3189391000196338, 1.3359192999778315, 1.3525336000020616, 1.3685928999911994, 1.3855027999961749, 1.400573600025382, 1.4193398000206798, 1.4361726000206545, 1.4526485999813303, 1.468232800019905, 1.4849790000007488, 1.5017001000232995, 1.5187146000098437, 1.5349436000105925, 1.5547160999849439, 1.5677148000104353, 1.58502870000666, 1.6026715000043623, 1.6185893000219949, 1.6354981000185944, 1.653273599979002, 1.6690574000240304, 1.6870276000117883, 1.7036146000027657, 1.7182583999820054, 1.7347046000068076, 1.753394200000912, 1.769621899991762, 1.7856196999782696, 1.8026307999971323, 1.8186724000261165, 1.8351327999844216, 1.852008800022304, 1.8694490999914706, 1.88587679999182, 1.9022886999882758, 1.9182380000129342, 1.9339387000072747, 1.9519887000205927, 1.9679175000055693, 1.9847694999771193, 2.0017393000307493, 2.017700500029605, 2.0339157999842428, 2.05187919997843, 2.0683801000122912, 2.0858768000034615, 2.1005623000091873, 2.1185286000254564, 2.1345759999821894, 2.1526402999879792, 2.1695986000122502, 2.1859650000114925, 2.2015074000228196, 2.218787499994505, 2.2349212000262924, 2.251868800027296, 2.2668783999979496, 2.284935100004077, 2.302000100025907, 2.3189401000272483, 2.3341052000178024, 2.351565200020559, 2.367168400029186, 2.38456670002779, 2.400629999989178, 2.418381399998907, 2.4341514999978244, 2.451729200023692, 2.4676616999786347, 2.4850664000259712, 2.5004283000016585, 2.518071800004691, 2.5343022000161, 2.5518953999853693, 2.5668305000290275, 2.58446590002859]
S03;4;0;0;1;False;3000;True;;8;88.24068587865723;drag;L;0.2267736;6.5764346;88.03;6.58;1.398214699991513;1.3983252000180073;1685460239.1054466;1685460239.123802;1685460239.876297;1685460240.379004;1685460243.3794477;1685460244.7774127;[0.0, 0.0, 0.0, 0.0, 0.0, 0.0, 0.0, 0.0, 0.0, 0.0, 0.0, 0.0, 0.0, 0.0, 0.0, 0.0, 0.0, 0.0, 0.0, 0.0, 0.0, 0.0, 0.0, 0.0, 0.0, 0.0, 0.0, 0.0, 0.0, 0.0, 0.0, 0.0, 0.0, 0.0, 0.0, 0.0, 0.0, 0.0, -0.0283467, -0.0566934, -0.0566934, -0.0566934, -0.0566934, -0.0566934, -0.0566934, -0.0566934, -0.0566934, -0.0566934, -0.0850401, -0.0850401, -0.1133868, -0.1133868, -0.1133868, -0.1133868, -0.0850401, -0.0566934, -0.0566934, 0.0, 0.0, 0.0, 0.0, 0.0, 0.0283467, 0.0850401, 0.1700802, 0.19842692, 0.19842692, 0.2267736, 0.2551203, 0.2551203, 0.2551203, 0.2551203, 0.2551203, 0.2551203, 0.2551203, 0.2551203, 0.2551203, 0.2551203, 0.2551203, 0.2551203, 0.2551203, 0.2551203, 0.2267736, 0.2267736];[0.0, 0.0, 0.0, 0.0, 0.0, 0.0, 0.0, 0.0, 0.0, 0.0, 0.0, 0.0, 0.0, 0.0, 0.0, 0.0, 0.0, 0.0, 0.0, 0.0, 0.0, 0.0, 0.0, 0.0, 0.0, 0.0, 0.0, 0.0, 0.0, 0.0, 0.0, 0.0, 0.0, 0.0, 0.0, 0.0, 0.0, 0.0, 0.1700802, 0.36850712, 0.56693405, 0.7086675, 0.87874776, 1.0488279, 1.4740285, 1.7291489, 1.9275757, 1.984269, 2.0976558, 2.2677362, 2.4094696, 2.8630168, 3.146484, 3.3732576, 3.8551514, 4.025232, 4.1953115, 4.620512, 4.762246, 4.875633, 5.017366, 5.130753, 5.2724867, 5.4709134, 5.7260337, 5.8394203, 5.924461, 6.0661945, 6.151234, 6.2079277, 6.2362742, 6.264621, 6.321315, 6.321315, 6.3496614, 6.434701, 6.4630475, 6.5197415, 6.548088, 6.548088, 6.5764346, 6.5764346, 6.5764346, 6.5764346];[0.004362599982414395, 0.016123800014611334, 0.03464169998187572, 0.05007080000359565, 0.06730679998872802, 0.08279489999404177, 0.10025720001431182, 0.11661189998267218, 0.13416170002892613, 0.15030300000216812, 0.16764419997343794, 0.18366919999243692, 0.20067789999302477, 0.21691429999191314, 0.23482589999912307, 0.249924200004898, 0.2673536000074819, 0.28290350001771003, 0.3002225999953225, 0.31736970000201836, 0.33418689999962226, 0.3503212999785319, 0.36728250002488494, 0.3824453999986872, 0.400394199998118, 0.41734589997213334, 0.4348753999802284, 0.4499165000161156, 0.46703090000664815, 0.48272750002797693, 0.5008161999867298, 0.5167867999989539, 0.534385500010103, 0.5488726000185125, 0.5672552000032738, 0.5837650999892503, 0.6009650999912992, 0.6170278000063263, 0.6336845000041649, 0.6505251000053249, 0.6690553000080399, 0.68196529999841, 0.6999492999748327, 0.715684599999804, 0.7327049999730662, 0.7508217000286095, 0.766754399985075, 0.7833643999765627, 0.8019383000209928, 0.8159360000281595, 0.8333929000073113, 0.8509284000028856, 0.8662027000100352, 0.8842495999997482, 0.9008413000265136, 0.9164603999815881, 0.9331140000140294, 0.9493092999910004, 0.9676988000283018, 0.982486599998083, 0.999771700007841, 1.0157591999741271, 1.033797100011725, 1.0489579000277445, 1.0693418000009842, 1.0841458999784663, 1.1001808000146411, 1.1182556999847293, 1.132930900028441, 1.149076999980025, 1.1669509999919683, 1.183251400012523, 1.202708899974823, 1.2158390000113286, 1.235285600007046, 1.2515090000233613, 1.2654762999736704, 1.283218200027477, 1.3002279999782331, 1.3162267999723554, 1.3358233000035398, 1.3492857000092044, 1.367941799981054, 1.3825693000108004]
S03;5;0;0;1;False;1000;True;;8;135.01867188208269;drag;L;-6.633128;4.5071254;145.8;8.02;1.3849716000258923;1.3850219000014476;1685460245.6129427;1685460245.6231115;1685460246.3770337;1685460246.8800898;1685460247.8586333;1685460249.2441792;[0.0, 0.0, 0.0, 0.0, 0.0, 0.0, 0.0, 0.0, 0.0, 0.0, 0.0, 0.0, 0.0, 0.0, 0.0, 0.0, 0.0, 0.0, 0.0, 0.0, 0.0, 0.0, 0.0, 0.0, 0.0, 0.0, 0.0, 0.0, 0.0, 0.0, 0.0, 0.0, 0.0, 0.0, 0.0, 0.0, 0.0, -0.59528077, -1.1622148, -1.899229, -2.2677362, -2.5228565, -2.8630168, -3.0330973, -3.146484, -3.2315238, -3.316564, -3.4299507, -3.514991, -3.6283777, -3.770111, -3.8268046, -3.911845, -4.081925, -4.2236586, -4.337045, -4.5354724, -4.6772056, -4.875633, -5.017366, -5.130753, -5.32918, -5.4709134, -5.612647, -5.66934, -5.7260337, -5.782727, -5.896114, -5.9528074, -6.094541, -6.151234, -6.2079277, -6.264621, -6.321315, -6.434701, -6.491395, -6.548088, -6.6047816, -6.633128, -6.633128, -6.633128, -6.633128, -6.633128];[0.0, 0.0, 0.0, 0.0, 0.0, 0.0, 0.0, 0.0, 0.0, 0.0, 0.0, 0.0, 0.0, 0.0, 0.0, 0.0, 0.0, 0.0, 0.0, 0.0, 0.0, 0.0, 0.0, 0.0, 0.0, 0.0, 0.0, 0.0, 0.0, 0.0, 0.0, 0.0, 0.0, 0.0, 0.0, 0.0, 0.0, 0.3401604, 0.6236274, 1.0488279, 1.2756016, 1.4740285, 1.7008021, 1.8708823, 1.9559225, 2.012616, 2.0976558, 2.211043, 2.2960827, 2.4094696, 2.5228565, 2.6078966, 2.6929367, 2.8063235, 2.9197102, 3.0047503, 3.1181371, 3.2315238, 3.3732576, 3.4582977, 3.5716846, 3.713418, 3.8268046, 3.968538, 3.996885, 4.025232, 4.0535784, 4.110272, 4.1953115, 4.252005, 4.2803516, 4.3086987, 4.337045, 4.365392, 4.422086, 4.4504323, 4.478779, 4.478779, 4.5071254, 4.5071254, 4.5071254, 4.5071254, 4.5071254];[0.0029761000187136233, 0.019330300041474402, 0.03629190003266558, 0.05376750003779307, 0.07052390003809705, 0.08778460003668442, 0.10341510002035648, 0.12155500001972541, 0.13684880000073463, 0.1543095000088215, 0.16928690002532676, 0.18841450003674254, 0.20242880005389452, 0.22049300000071526, 0.236307300045155, 0.2545856000506319, 0.2693530000397004, 0.2859580000513233, 0.301570100011304, 0.32059990003472194, 0.33721050003077835, 0.35371090000262484, 0.37026540003716946, 0.3878436000086367, 0.40276490000542253, 0.42133430001558736, 0.43747100001201034, 0.4546474000089802, 0.4703527000383474, 0.4859691000310704, 0.5030567000503652, 0.5223313000169583, 0.5360814000014216, 0.5549796000123024, 0.5690871000406332, 0.5868529000435956, 0.6026734000188299, 0.6210524000343867, 0.636604500003159, 0.6541253000032157, 0.6693897000513971, 0.6883532000356354, 0.7032128000282682, 0.7203625000547618, 0.7364287000382319, 0.7545802000095136, 0.769674000039231, 0.7873847000300884, 0.802850500040222, 0.8217909000231884, 0.8370005000033416, 0.8539583000238054, 0.8703720000339672, 0.8867865000502206, 0.9023282000562176, 0.9196339000482112, 0.9364230000064708, 0.9534736000350676, 0.9694170000148006, 0.9873405000544153, 1.0025746000465006, 1.0203958000056446, 1.0370734000462107, 1.0545441000140272, 1.0687129000434652, 1.0876151000265963, 1.102685800055042, 1.1207944000489078, 1.1378742000088096, 1.1529141000355594, 1.169818100053817, 1.1880676000146195, 1.201920700026676, 1.220843600051012, 1.2386716000037268, 1.2555218000197783, 1.269668300054036, 1.2865094000007957, 1.3040295000537299, 1.3204043000005186, 1.3357432000339031, 1.3530601000529714, 1.3694470000336878]
S03;6;0;0;1;False;1000;False;;8;-116.92595625046603;drag;L;nan;nan;nan;nan;0.0023852000012993813;0.002474399982020259;1685460250.104802;1685460250.1229131;1685460250.8773797;1685460251.3788192;1685460252.3451324;1685460252.3471587;[];[];[]
S03;6;0;0;1;False;1000;False;;8;-129.23414704698166;drag;L;nan;nan;nan;nan;0.0015796000370755792;0.0016740999999456108;1685460252.9128869;1685460252.922923;1685460253.678474;1685460254.1784678;1685460255.1442835;1685460255.146719;[];[];[]
S03;6;0;0;1;False;1000;True;;8;166.70414008417004;drag;L;-8.135503;0.14173351;179.0;8.14;2.1167319999658503;2.116829600010533;1685460255.6975694;1685460255.7065356;1685460256.4604197;1685460256.9617608;1685460257.9446762;1685460260.0612266;[0.0, 0.0, 0.0, 0.0, 0.0, 0.0, 0.0, 0.0, 0.0, 0.0, 0.0, 0.0, 0.0, 0.0, 0.0, 0.0, 0.0, 0.0, 0.0, 0.0, 0.0, 0.0, 0.0, 0.0, 0.0, 0.0, 0.0, 0.0, 0.0, 0.0, 0.0, 0.0, 0.0, 0.0, 0.0, 0.0, 0.0, 0.0, 0.0, 0.0, 0.0, 0.0, 0.0, 0.0, 0.0, 0.0, 0.0, 0.0, 0.0, 0.0, 0.0, 0.0, 0.0, 0.0, 0.0, 0.0, 0.0, 0.0, 0.0, 0.0, 0.0, 0.0, 0.0, 0.0, 0.0, 0.0, 0.0, 0.0, 0.0, 0.0, 0.0, 0.0, 0.0, 0.0, 0.0, 0.0, 0.0, 0.0, 0.0, 0.0, 0.0, 0.0, 0.0, 0.0, 0.0, 0.0, 0.0, 0.0, 0.0, 0.0, 0.0, -0.6236274, -2.1260026, -3.5716846, -4.422086, -5.2441397, -5.612647, -5.811074, -6.1228876, -6.434701, -6.7465153, -7.285102, -7.5685697, -7.8520365, -7.9087296, -7.99377, -8.022117, -8.050464, -8.07881, -8.107157, -8.107157, -8.135503, -8.135503, -8.16385, -8.192197, -8.192197, -8.192197, -8.192197, -8.192197, -8.192197, -8.192197, -8.192197, -8.16385, -8.16385, -8.16385, -8.16385, -8.135503];[0.0, 0.0, 0.0, 0.0, 0.0, 0.0, 0.0, 0.0, 0.0, 0.0, 0.0, 0.0, 0.0, 0.0, 0.0, 0.0, 0.0, 0.0, 0.0, 0.0, 0.0, 0.0, 0.0, 0.0, 0.0, 0.0, 0.0, 0.0, 0.0, 0.0, 0.0, 0.0, 0.0, 0.0, 0.0, 0.0, 0.0, 0.0, 0.0, 0.0, 0.0, 0.0, 0.0, 0.0, 0.0, 0.0, 0.0, 0.0, 0.0, 0.0, 0.0, 0.0, 0.0, 0.0, 0.0, 0.0, 0.0, 0.0, 0.0, 0.0, 0.0, 0.0, 0.0, 0.0, 0.0, 0.0, 0.0, 0.0, 0.0, 0.0, 0.0, 0.0, 0.0, 0.0, 0.0, 0.0, 0.0, 0.0, 0.0, 0.0, 0.0, 0.0, 0.0, 0.0, 0.0, 0.0, 0.0, 0.0, 0.0, 0.0, 0.0, 0.0, 0.0850401, 0.2551203, 0.36850712, 0.5102406, 0.53858733, 0.56693405, 0.56693405, 0.56693405, 0.53858733, 0.5102406, 0.48189393, 0.4535472, 0.4535472, 0.4535472, 0.4535472, 0.4535472, 0.4535472, 0.42520052, 0.42520052, 0.36850712, 0.3118137, 0.2551203, 0.19842692, 0.1700802, 0.1700802, 0.14173351, 0.14173351, 0.14173351, 0.14173351, 0.14173351, 0.14173351, 0.14173351, 0.14173351, 0.14173351, 0.14173351];[0.004337800026405603, 0.017365399980917573, 0.033508700027596205, 0.05085900000995025, 0.06694960000459105, 0.08556310000130907, 0.09997139999177307, 0.11795849999180064, 0.13285170000744984, 0.15204200003063306, 0.1681205999921076, 0.18457340000895783, 0.20024219999322668, 0.21732180000981316, 0.23291070002596825, 0.2525949000264518, 0.26750800001900643, 0.28470359998755157, 0.2995035999920219, 0.31841519998852164, 0.33428920002188534, 0.35004699998535216, 0.36719770001946017, 0.38424500002292916, 0.4000851000309922, 0.418558600009419, 0.43430959997931495, 0.45094650000100955, 0.46735809999518096, 0.4855884999851696, 0.5015123999910429, 0.5188121999963187, 0.5340981000335887, 0.5515877000289038, 0.5671849999926053, 0.5848029000335373, 0.6009094000328332, 0.6182501000002958, 0.6340252000372857, 0.6515582000138238, 0.6677631000056863, 0.6848072999855503, 0.7003253999864683, 0.718634299992118, 0.7344213000033051, 0.7511144999880344, 0.7673091000178829, 0.7847706000320613, 0.8015593999880366, 0.8189771000179462, 0.8343885000213049, 0.8520347999874502, 0.8683411999954842, 0.8860501000308432, 0.9005191000178456, 0.9176820000284351, 0.9342503999941982, 0.9514199999975972, 0.9675023999880068, 0.9855691000120714, 1.0006674000178464, 1.0186004000133835, 1.0336105999886058, 1.0506694000214338, 1.0677841000142507, 1.0852697000373155, 1.1000921999802813, 1.118233599991072, 1.1333474999992177, 1.1515266000060365, 1.1673076000297442, 1.1855168000329286, 1.2002070000162348, 1.2188129000132903, 1.2341173000168055, 1.2511980999843217, 1.2673673999961466, 1.2844417000305839, 1.3003290999913588, 1.3176198999863118, 1.3336828000028618, 1.3516031000181101, 1.3667694000178017, 1.3843109000008553, 1.3994635000126436, 1.4176959000178613, 1.4336325000040233, 1.4506989000365138, 1.465595800022129, 1.4836494000046514, 1.4991343999863602, 1.5169889000244439, 1.5340866000042297, 1.550543799996376, 1.5668089999817312, 1.5859227000037208, 1.5996644999831915, 1.6167322000255808, 1.634918900032062, 1.6508110000286251, 1.665789999999106, 1.684423400030937, 1.6996449999860488, 1.719112100021448, 1.734081500035245, 1.753176500031259, 1.7675214000046253, 1.7834932000259869, 1.8001757999882102, 1.817246199992951, 1.833197200030554, 1.8519615000113845, 1.8663244000053965, 1.883641600026749, 1.9028994999825954, 1.9158960999920964, 1.9324407000094652, 1.9500178000307642, 1.9673354999977164, 1.984470000024885, 2.000484400021378, 2.0176008000271395, 2.0343660000362433, 2.051870900031645, 2.067189200024586, 2.0835547000169754, 2.1000830000266433]
S03;7;0;0;1;False;3000;True;;8;42.234063943117135;drag;L;6.491395;4.932326;37.23;8.15;1.365704399999231;1.3658157999743707;1685460260.8184252;1685460260.8391235;1685460261.5931447;1685460262.0944207;1685460265.0954669;1685460266.4608068;[0.0, 0.0, 0.0, 0.0, 0.0, -0.0283467, -0.0566934, -0.0566934, -0.0566934, -0.0566934, -0.0850401, -0.0850401, -0.0850401, -0.0850401, -0.0850401, -0.0850401, -0.0850401, -0.0850401, -0.0850401, -0.0850401, -0.0850401, -0.0850401, -0.0850401, -0.0850401, -0.0850401, -0.0850401, -0.0850401, -0.0850401, -0.0850401, -0.0850401, -0.0850401, -0.0850401, -0.0850401, -0.0850401, -0.0850401, -0.0850401, -0.0850401, -0.0850401, -0.0850401, -0.0850401, -0.0850401, -0.0850401, -0.0850401, -0.0850401, -0.0850401, -0.0850401, -0.0850401, -0.0850401, 0.1700802, 1.2472548, 1.8141888, 2.381123, 3.0047503, 3.4016042, 3.911845, 4.648859, 4.960673, 5.32918, 5.527607, 5.811074, 5.981154, 6.1228876, 6.264621, 6.3496614, 6.434701, 6.491395, 6.5197415, 6.548088, 6.5764346, 6.5764346, 6.5764346, 6.5764346, 6.5764346, 6.5764346, 6.5764346, 6.5764346, 6.548088, 6.5197415, 6.5197415, 6.491395, 6.491395, 6.491395];[0.0, 0.0283467, 0.0283467, 0.0566934, 0.0566934, 0.0850401, 0.1133868, 0.1133868, 0.1133868, 0.1133868, 0.1133868, 0.1133868, 0.1133868, 0.1133868, 0.1133868, 0.1133868, 0.1133868, 0.1133868, 0.1133868, 0.1133868, 0.1133868, 0.1133868, 0.1133868, 0.1133868, 0.1133868, 0.1133868, 0.1133868, 0.1133868, 0.1133868, 0.1133868, 0.1133868, 0.1133868, 0.1133868, 0.1133868, 0.1133868, 0.1133868, 0.1133868, 0.1133868, 0.1133868, 0.1133868, 0.1133868, 0.1133868, 0.1133868, 0.1133868, 0.1133868, 0.1133868, 0.1133868, 0.1133868, 0.3401604, 0.93544114, 1.2472548, 1.5874153, 2.0409625, 2.3244295, 2.6929367, 3.2598708, 3.4866443, 3.7417645, 3.911845, 4.166965, 4.337045, 4.478779, 4.620512, 4.7055526, 4.7905927, 4.818939, 4.875633, 4.875633, 4.9039793, 4.932326, 4.932326, 4.932326, 4.932326, 4.932326, 4.932326, 4.932326, 4.932326, 4.932326, 4.932326, 4.932326, 4.932326, 4.932326];[0.0040954999858513474, 0.014942599984351546, 0.03233889996772632, 0.04909430001862347, 0.06531470001209527, 0.08286399999633431, 0.09929629997350276, 0.11552569997729734, 0.13211439998121932, 0.14900749997468665, 0.16666290001012385, 0.18146260001230985, 0.19806720002088696, 0.21464949997607619, 0.23223540000617504, 0.24779619998298585, 0.26594110002042726, 0.28207680000923574, 0.2990914999973029, 0.31466430000727996, 0.3328769999789074, 0.3491552000050433, 0.36617609998211265, 0.38131299999076873, 0.39840950001962483, 0.41532119998009875, 0.4326114999712445, 0.44801779999397695, 0.4647174999699928, 0.4818402999662794, 0.49933839996811, 0.5155040000099689, 0.5325744000147097, 0.547443600022234, 0.5662089000106789, 0.5823537000105716, 0.6007505999878049, 0.6150365999783389, 0.631571999983862, 0.6488610999658704, 0.6665838999906555, 0.6826287999865599, 0.6999907999997959, 0.7155313999974169, 0.7337587999645621, 0.7488712000194937, 0.7653516000136733, 0.7806411000201479, 0.7985855999868363, 0.8147429999662563, 0.8325374000123702, 0.848848800000269, 0.8648548999917693, 0.8819691999815404, 0.8979251999990083, 0.9145463000168093, 0.9328109999769367, 0.948429899988696, 0.9659864999703132, 0.9838082999922335, 0.9984671999700367, 1.016032700019423, 1.0322914000134915, 1.0479611000046134, 1.0663402000209317, 1.0824253999744542, 1.099226100021042, 1.11504150001565, 1.132766199996695, 1.1485818999935873, 1.1662965000141412, 1.182146199978888, 1.1992597000207752, 1.215720699983649, 1.2325628999969922, 1.2492470999713987, 1.2662634999724105, 1.2827269000117667, 1.2984359000110999, 1.3146087999921292, 1.3322763000032865, 1.348477899970021]
S03;8;0;0;1;False;1000;True;;8;-88.80568890077082;drag;L;-0.14173351;-7.4551826;-91.09;7.46;4.248753599997144;4.248865700035822;1685460267.3009596;1685460267.3054175;1685460268.059463;1685460268.5600514;1685460269.543617;1685460273.7923884;[0.0, 0.0, 0.0, 0.0, 0.0, 0.0, 0.0, 0.0, 0.0, 0.0, 0.0, 0.0, 0.0, 0.0, 0.0, 0.0, 0.0, 0.0, 0.0, 0.0, 0.0, 0.0, 0.0, 0.0, 0.0, 0.0, 0.0, 0.0, 0.0, 0.0, 0.0, 0.0, 0.0, 0.0, 0.0, 0.0, 0.0, 0.0, 0.0, 0.0, 0.0, 0.0, 0.0, 0.0, 0.0, 0.0, 0.0, 0.0, 0.0, 0.0, 0.0, 0.0, 0.0, 0.0, 0.0, 0.0, 0.0, 0.0, 0.0, -0.0283467, -0.0566934, -0.0850401, -0.0850401, -0.1133868, -0.14173351, -0.1700802, -0.19842692, -0.2267736, -0.2551203, -0.28346702, -0.28346702, -0.28346702, -0.28346702, -0.28346702, -0.28346702, -0.28346702, -0.28346702, -0.28346702, -0.28346702, -0.28346702, -0.28346702, -0.28346702, -0.28346702, -0.28346702, -0.28346702, -0.28346702, -0.28346702, -0.28346702, -0.28346702, -0.28346702, -0.28346702, -0.28346702, -0.28346702, -0.28346702, -0.28346702, -0.28346702, -0.28346702, -0.28346702, -0.28346702, -0.28346702, -0.28346702, -0.28346702, -0.28346702, -0.28346702, -0.28346702, -0.28346702, -0.28346702, -0.28346702, -0.28346702, -0.28346702, -0.28346702, -0.28346702, -0.28346702, -0.2267736, -0.0566934, 0.0, 0.0, 0.0, 0.0, -0.0566934, -0.14173351, -0.2267736, -0.28346702, -0.28346702, -0.28346702, -0.28346702, -0.28346702, -0.2551203, -0.2551203, -0.2267736, -0.2267736, -0.2267736, -0.2267736, -0.2267736, -0.19842692, -0.19842692, -0.19842692, -0.19842692, -0.19842692, -0.1700802, -0.14173351, -0.14173351, -0.1133868, -0.1133868, -0.1133868, -0.1133868, -0.1133868, -0.1133868, -0.1133868, -0.1133868, -0.1133868, -0.1133868, -0.1133868, -0.1133868, -0.1133868, -0.1133868, -0.1133868, -0.1133868, -0.1133868, -0.1133868, -0.1133868, -0.1133868, -0.1133868, -0.1133868, -0.1133868, -0.1133868, -0.0850401, -0.0850401, -0.0850401, -0.0566934, -0.0566934, -0.0566934, -0.0566934, -0.0566934, -0.0566934, -0.0566934, -0.0566934, -0.0566934, -0.0566934, -0.0566934, -0.0566934, -0.0566934, -0.0566934, -0.0566934, -0.0566934, -0.0566934, -0.0566934, -0.0566934, -0.0566934, -0.0566934, -0.0566934, -0.0566934, -0.28346702, -0.4535472, -0.4535472, -0.4535472, -0.4535472, -0.48189393, -0.48189393, -0.48189393, -0.48189393, -0.48189393, -0.48189393, -0.48189393, -0.42520052, -0.42520052, -0.42520052, -0.42520052, -0.42520052, -0.42520052, -0.42520052, -0.42520052, -0.42520052, -0.42520052, -0.42520052, -0.42520052, -0.42520052, -0.42520052, -0.42520052, -0.42520052, -0.42520052, -0.42520052, -0.39685383, -0.39685383, -0.36850712, -0.3401604, -0.3118137, -0.28346702, -0.19842692, -0.19842692, -0.1700802, -0.1700802, -0.1700802, -0.14173351, -0.14173351, -0.14173351, -0.14173351, -0.14173351, -0.14173351, -0.14173351, -0.14173351, -0.14173351, -0.14173351, -0.14173351, -0.14173351, -0.14173351, -0.14173351, -0.14173351, -0.14173351, -0.14173351, -0.14173351, -0.14173351, -0.14173351, -0.14173351, -0.14173351];[0.0, 0.0, 0.0, 0.0, 0.0, 0.0, 0.0, 0.0, 0.0, 0.0, 0.0, 0.0, 0.0, 0.0, 0.0, 0.0, 0.0, 0.0, 0.0, 0.0, 0.0, 0.0, 0.0, 0.0, 0.0, 0.0, 0.0, 0.0, 0.0, 0.0, 0.0, 0.0, 0.0, 0.0, 0.0, 0.0, 0.0, 0.0, 0.0, 0.0, 0.0, 0.0, 0.0, 0.0, -0.1133868, -0.42520052, -0.85040104, -1.5023751, -1.9559225, -2.2677362, -2.4945097, -2.8913634, -3.146484, -3.4299507, -3.8268046, -4.025232, -4.2236586, -4.4504323, -4.620512, -4.7905927, -4.932326, -5.045713, -5.1591, -5.3858733, -5.5843005, -5.981154, -6.1795807, -6.378008, -6.5197415, -6.5764346, -6.6614747, -6.7465153, -6.774862, -6.8032084, -6.831555, -6.831555, -6.8599014, -6.888248, -6.888248, -6.888248, -6.888248, -6.888248, -6.888248, -6.888248, -6.888248, -6.888248, -6.888248, -6.888248, -6.888248, -6.888248, -6.888248, -6.888248, -6.888248, -6.888248, -6.888248, -6.888248, -6.888248, -6.888248, -6.888248, -6.888248, -6.888248, -6.888248, -6.888248, -6.888248, -6.888248, -6.888248, -6.888248, -6.888248, -6.888248, -6.888248, -6.888248, -6.888248, -6.888248, -6.548088, -5.75438, -5.1591, -4.960673, -4.762246, -4.563819, -4.1386185, -3.770111, -3.2882173, -2.9764037, -2.6362433, -2.381123, -2.1260026, -1.8708823, -1.5590686, -1.417335, -1.2472548, -1.1905615, -1.1338681, -0.87874776, -0.56693405, -0.2267736, 0.0850401, 0.14173351, 0.2267736, 0.28346702, 0.3118137, 0.39685383, 0.42520052, 0.5102406, 0.5102406, 0.56693405, 0.56693405, 0.59528077, 0.59528077, 0.59528077, 0.59528077, 0.59528077, 0.59528077, 0.59528077, 0.59528077, 0.56693405, 0.53858733, 0.53858733, 0.5102406, 0.5102406, 0.48189393, 0.48189393, 0.4535472, 0.42520052, 0.42520052, 0.39685383, 0.36850712, 0.3118137, 0.28346702, 0.2551203, 0.2551203, 0.2267736, 0.2267736, 0.19842692, 0.1700802, 0.1700802, 0.14173351, 0.14173351, 0.1133868, 0.1133868, 0.1133868, 0.1133868, 0.1133868, 0.1133868, 0.1133868, 0.1133868, 0.1133868, 0.1133868, 0.1133868, 0.1133868, 0.1133868, 0.1133868, 0.1133868, -2.2393894, -4.252005, -5.045713, -5.8677673, -6.2079277, -6.321315, -6.5197415, -6.7181687, -6.944942, -7.3984895, -7.7669964, -8.107157, -8.390623, -8.532357, -8.58905, -8.67409, -8.702437, -8.702437, -8.7591305, -8.7591305, -8.7591305, -8.7591305, -8.7591305, -8.7591305, -8.7591305, -8.7591305, -8.7591305, -8.730784, -8.730784, -8.702437, -8.67409, -8.58905, -8.50401, -8.362277, -8.277237, -8.192197, -8.050464, -7.99377, -7.937076, -7.880383, -7.8520365, -7.8520365, -7.795343, -7.795343, -7.7669964, -7.7669964, -7.7669964, -7.7386494, -7.7386494, -7.710303, -7.710303, -7.681956, -7.6536093, -7.6252627, -7.6252627, -7.596916, -7.5685697, -7.540222, -7.5118756, -7.5118756, -7.483529, -7.483529, -7.4551826];[0.00427010003477335, 0.018200999998953193, 0.034216900006867945, 0.05144090001704171, 0.06793770001968369, 0.08465660002548248, 0.10044560005189851, 0.11808520002523437, 0.1331915000337176, 0.15176800003973767, 0.1676442000316456, 0.1851234000059776, 0.20037700003013015, 0.21743800002150238, 0.2341761999996379, 0.25195310002891347, 0.26723420002963394, 0.28446730005089194, 0.30093770002713427, 0.3175774000119418, 0.3340729000046849, 0.35155300004407763, 0.36790740001015365, 0.3848524000495672, 0.4012256000423804, 0.41834340000059456, 0.4336586000281386, 0.45255120005458593, 0.4678768000449054, 0.48520180000923574, 0.5022858000011183, 0.5192681000335142, 0.5347877000458539, 0.5513703000033274, 0.5677598000038415, 0.585291400027927, 0.6001236000447534, 0.6182396000367589, 0.6343331000534818, 0.6504312000470236, 0.6672541000298224, 0.6844469000352547, 0.6998655000352301, 0.7179035000153817, 0.7337759000365622, 0.7512477000127546, 0.7663724000449292, 0.7846379000111483, 0.8046330000506714, 0.8179455000208691, 0.8348665000521578, 0.8529301000526175, 0.8673017000546679, 0.8842480000457726, 0.9022591000539251, 0.9182400000281632, 0.9344267000560649, 0.9515356000047177, 0.9683357000467367, 0.9865819000406191, 1.0005898000090383, 1.0193539000465535, 1.03409750002902, 1.0503201000392437, 1.0669244000455365, 1.084389400028158, 1.100621800054796, 1.1190873000305146, 1.1348591000423767, 1.1513809000025503, 1.1671942000393756, 1.184112900053151, 1.2016592000145465, 1.2174709000391886, 1.2350672000320628, 1.2512061000452377, 1.2671808000304736, 1.2861197000020184, 1.3001872000168078, 1.3178707000333816, 1.334487000014633, 1.3511066000210121, 1.367323100042995, 1.3846436000312679, 1.4006317000021227, 1.4199416000046767, 1.4340599999995902, 1.452279000019189, 1.467776200035587, 1.4849966000183485, 1.5009013000526465, 1.5183315000031143, 1.533889900019858, 1.5513303000479937, 1.5672338000149466, 1.5860174000263214, 1.6003547000000253, 1.617896500043571, 1.6328255000407808, 1.6513707000412978, 1.6674041000078432, 1.6843210000079125, 1.701175200054422, 1.7173704000306316, 1.7338776000542566, 1.751603500044439, 1.7669029000098817, 1.7851065000286326, 1.8004922000109218, 1.8197562000132166, 1.8339468000340275, 1.851081200002227, 1.8689439000445418, 1.885091200005263, 1.9001385000301525, 1.9199908000300638, 1.9348797000129707, 1.951106200052891, 1.9670318000135012, 1.9847575000021607, 2.000335500051733, 2.017119600030128, 2.033661400026176, 2.0533775000367314, 2.0667227000230923, 2.0864452000241727, 2.1011146000237204, 2.1174049000255764, 2.1338418000377715, 2.150626500020735, 2.166498800041154, 2.183755400008522, 2.1999364000512287, 2.2177323000505567, 2.2334813000052236, 2.250453600019682, 2.266988900024444, 2.2844301000004634, 2.300844200013671, 2.317962900036946, 2.335166200005915, 2.350829800008796, 2.3702044000383466, 2.384769399999641, 2.4023836000123993, 2.4188957000151277, 2.435143400041852, 2.4521150000509806, 2.4685564000392333, 2.48578060005093, 2.5007561000529677, 2.5189553000382148, 2.5349011000362225, 2.5520152000244707, 2.568903000035789, 2.584866800054442, 2.600572400027886, 2.618411500006914, 2.634516700054519, 2.651126300042961, 2.667151900008321, 2.6845604000263847, 2.700535000010859, 2.718478100025095, 2.7338504000217654, 2.7536804000264965, 2.7680887000169605, 2.784073900023941, 2.800813800015021, 2.8190551000298, 2.8356188000179827, 2.851859900052659, 2.8662720000138506, 2.884611000015866, 2.901471900055185, 2.91850390000036, 2.934512800013181, 2.9516648999997415, 2.966543400019873, 2.9847090000403114, 3.0006903000175953, 3.0188266000477597, 3.0348049000022, 3.050972199998796, 3.066723100026138, 3.0843505000229925, 3.099985800043214, 3.1186845000484027, 3.134042700054124, 3.151808400056325, 3.1683064000098966, 3.1854732000501826, 3.2026063000084832, 3.218357600038871, 3.233778300054837, 3.2540466000209562, 3.267113900044933, 3.2848083000280894, 3.3028756000567228, 3.3181973000173457, 3.3339479000424035, 3.35095720004756, 3.367165500007104, 3.385533900000155, 3.400695000018459, 3.4181158000137657, 3.434992200054694, 3.4519393000518903, 3.4671335000311956, 3.484461400017608, 3.500298600003589, 3.5193288000300527, 3.5341234000516124, 3.550695500045549, 3.5683797000092454, 3.5843900000327267, 3.601685300003737, 3.6175995000521652, 3.6345679000369273, 3.654324400005862, 3.666301800054498, 3.68547370005399, 3.7003011000342667, 3.717797600023914, 3.733915800054092, 3.7523643000167795, 3.7669954000157304, 3.78529410000192, 3.8019502000533976, 3.817992700031027, 3.8365264000021853, 3.8516664000344463, 3.8683708000462502, 3.8850005000131205, 3.900188400002662, 3.9191904000472277, 3.9361417000181973, 3.9513245000271127, 3.9671048000454903, 3.984718600055203, 4.001206800050568, 4.01831840001978, 4.034323300002143, 4.051975000009406, 4.0664722000365146, 4.0849834000109695, 4.099702800041996, 4.116905600007158, 4.132993900042493, 4.152359600004274, 4.167365200002678, 4.184373399999458, 4.199904200038873, 4.21787710004719, 4.2344148000120185]
S03;9;0;0;1;False;3000;True;;8;-174.10164582557064;drag;L;-6.9165955;-2.2393894;-162.06;7.27;1.550703999993857;1.550817499984987;1685460274.5042708;1685460274.5223594;1685460275.2772002;1685460275.7762954;1685460278.8754919;1685460280.4255085;[0.0, 0.0, 0.0, 0.0, 0.0, 0.0, 0.0, 0.0, 0.0, 0.0, 0.0, 0.0, 0.0, 0.0, 0.0, 0.0, 0.0, 0.0, 0.0, 0.0, 0.0, 0.0, 0.0, 0.0, 0.0, 0.0, 0.0, 0.0, 0.0, 0.0, -0.39685383, -2.2960827, -3.2882173, -3.9401915, -4.563819, -4.7905927, -4.960673, -5.2441397, -5.3858733, -5.66934, -5.8394203, -6.0661945, -6.264621, -6.3496614, -6.434701, -6.548088, -6.633128, -6.6614747, -6.7181687, -6.774862, -6.8032084, -6.831555, -6.888248, -6.9165955, -6.9165955, -6.9165955, -6.9165955, -6.9165955, -6.9165955, -6.9165955, -6.9165955, -6.9165955, -6.9165955, -6.9165955, -6.9165955, -6.9165955, -6.9165955, -6.9165955, -6.9165955, -6.9165955, -6.9165955, -6.9165955, -6.9165955, -6.9165955, -6.9165955, -6.9165955, -6.9165955, -6.9165955, -6.9165955, -6.9165955, -6.9165955, -6.9165955, -6.9165955, -6.9165955, -6.9165955, -6.9165955, -6.9165955, -6.9165955, -6.9165955, -6.9165955, -6.9165955, -6.9165955, -6.9165955];[0.0, 0.0, 0.0, 0.0, 0.0, 0.0, 0.0, 0.0, 0.0, 0.0, 0.0, 0.0, 0.0, 0.0, 0.0, 0.0, 0.0, 0.0, 0.0, 0.0, 0.0, 0.0, 0.0, 0.0, 0.0, 0.0, 0.0, 0.0, 0.0, 0.0, -0.0283467, -0.3118137, -0.53858733, -0.73701423, -0.93544114, -0.9921345, -1.0771747, -1.1905615, -1.2472548, -1.332295, -1.417335, -1.4740285, -1.5590686, -1.5874153, -1.6441087, -1.7008021, -1.7008021, -1.7291489, -1.7291489, -1.8141888, -1.8708823, -1.984269, -2.0693092, -2.182696, -2.2393894, -2.2393894, -2.2393894, -2.2393894, -2.2393894, -2.2393894, -2.2393894, -2.2393894, -2.2393894, -2.2393894, -2.2393894, -2.2393894, -2.2393894, -2.2393894, -2.2393894, -2.2393894, -2.2393894, -2.2393894, -2.2393894, -2.2393894, -2.2393894, -2.2393894, -2.2393894, -2.2393894, -2.2393894, -2.2393894, -2.2393894, -2.2393894, -2.2393894, -2.2393894, -2.2393894, -2.2393894, -2.2393894, -2.2393894, -2.2393894, -2.2393894, -2.2393894, -2.2393894, -2.2393894];[0.004094500036444515, 0.019762800016906112, 0.035071899998001754, 0.053670399996917695, 0.0692579000024125, 0.0855044000199996, 0.10209300002316013, 0.11888040002668276, 0.1352008000249043, 0.15282529999967664, 0.16745350003475323, 0.1858817000174895, 0.20086169999558479, 0.2181175000150688, 0.2349821000243537, 0.2525164000107907, 0.268336100038141, 0.2859337000409141, 0.30107260000659153, 0.32010000001173466, 0.3367716000066139, 0.3527305999887176, 0.3687538999947719, 0.3856463000411168, 0.4012188999913633, 0.4193581999861635, 0.43449519999558106, 0.4517568000010215, 0.46902760001830757, 0.48507840000092983, 0.5011378999915905, 0.5203434000140987, 0.5355506000341848, 0.5526088000042364, 0.5676166000193916, 0.5866794000030495, 0.6010631000390276, 0.6194743000087328, 0.6351102000335231, 0.6525553000392392, 0.6680630000191741, 0.6867062000092119, 0.702847600041423, 0.7189751000260003, 0.7348667000187561, 0.7513080000062473, 0.7678081000340171, 0.7861900000134483, 0.8015969000407495, 0.8221517000347376, 0.834543900040444, 0.852847500005737, 0.8693330000387505, 0.8851785000297241, 0.9016318999929354, 0.9196519000106491, 0.9353707000263967, 0.9532681000418961, 0.9688243999844417, 0.9855742999934591, 1.0018971000099555, 1.0197143999976106, 1.0353500000201166, 1.0526532999938354, 1.0676171000231989, 1.0858122000354342, 1.101011999999173, 1.118298200017307, 1.1349705000175163, 1.1530115000205114, 1.1682350999908522, 1.186666299996432, 1.2015096000395715, 1.2201590000186116, 1.235682700003963, 1.2525299999979325, 1.2678177999914624, 1.2852982000331394, 1.3011415000073612, 1.318914900009986, 1.3346178000210784, 1.3517445999896154, 1.3685411000042222, 1.3856161999865435, 1.4012036999920383, 1.4175094999955036, 1.4353493000380695, 1.4532015000004321, 1.4678596000303514, 1.4863471999997273, 1.5008115000091493, 1.519186699995771, 1.5344026000238955]
S03;10;0;0;1;False;1000;True;;8;49.12750779178508;drag;L;4.847286;4.5921655;43.45;6.68;1.3158633999992162;1.3159514999715611;1685460281.1465673;1685460281.1549182;1685460281.9085596;1685460282.4110403;1685460283.3930333;1685460284.7093248;[0.0, 0.0, 0.0, 0.0, 0.0, 0.0, 0.0, 0.0, 0.0, 0.0, 0.0, 0.0, 0.0, 0.0, 0.0, 0.0, 0.0, 0.0, 0.0, 0.0, 0.0, 0.0, 0.0, 0.0, 0.0, 0.0, 0.0, 0.0, 0.0, 0.0, 0.0, 0.0, 0.0, 0.0, 0.0, 0.0, 0.0, 0.0, 0.0, 0.0, 0.0, 0.0, 0.0, 0.0, 0.0, 0.0, 0.7086675, 1.1055214, 1.2756016, 1.5874153, 1.7858423, 2.1543493, 2.4378164, 2.7496302, 2.8913634, 3.2598708, 3.4866443, 3.7417645, 3.911845, 4.0535784, 4.3086987, 4.4504323, 4.5354724, 4.620512, 4.6772056, 4.733899, 4.733899, 4.762246, 4.7905927, 4.7905927, 4.818939, 4.818939, 4.818939, 4.818939, 4.847286, 4.847286, 4.847286, 4.847286, 4.847286];[0.0, 0.0, 0.0, 0.0, 0.0, 0.0, 0.0, 0.0, 0.0, 0.0, 0.0, 0.0, 0.0, 0.0, 0.0, 0.0, 0.0, 0.0, 0.0, 0.0, 0.0, 0.0, 0.0, 0.0, 0.0, 0.0, 0.0, 0.0, 0.0, 0.0, 0.0, 0.0, 0.0, 0.0, 0.0, 0.0, 0.0, 0.0, 0.0, 0.0, 0.0, 0.0, 0.0, 0.0, 0.0, 0.0, 0.93544114, 1.3889884, 1.6157619, 1.899229, 2.0693092, 2.3244295, 2.4945097, 2.7212832, 2.83467, 3.1181371, 3.3449106, 3.5716846, 3.7417645, 3.911845, 4.166965, 4.2803516, 4.365392, 4.4504323, 4.478779, 4.5071254, 4.5354724, 4.5354724, 4.5354724, 4.5354724, 4.5354724, 4.5354724, 4.563819, 4.563819, 4.5921655, 4.5921655, 4.5921655, 4.5921655, 4.5921655];[0.0041253999806940556, 0.018877899972721934, 0.034036000026389956, 0.05249360000016168, 0.0678180999821052, 0.08454509999137372, 0.1009040999924764, 0.11837430001469329, 0.1344367999699898, 0.15116830001352355, 0.16724570002406836, 0.18479799997294322, 0.19994879997102544, 0.2189187000039965, 0.23471220000647008, 0.2507042000070214, 0.2671383999986574, 0.2861566999927163, 0.3011811000178568, 0.31882629997562617, 0.3357040999690071, 0.35160809999797493, 0.3675101000117138, 0.3852286000037566, 0.40074299997650087, 0.41844229999696836, 0.4338909999933094, 0.4517815000144765, 0.4662264999933541, 0.484052799991332, 0.5005617999704555, 0.5181958000175655, 0.5345326000242494, 0.5521064000204206, 0.5671099000028335, 0.5854719000053592, 0.6014086999930441, 0.6180868999799713, 0.6336080000037327, 0.6512416999903508, 0.6671330999815837, 0.6843962999992073, 0.7010976999881677, 0.7180299999890849, 0.7331058999989182, 0.7529972000047565, 0.7692490000044927, 0.7849629999836907, 0.8006362000014633, 0.818041299993638, 0.8342569000087678, 0.8519936000229791, 0.866950600000564, 0.8882783000008203, 0.9002799000008963, 0.917907600000035, 0.9349520999821834, 0.9504318999825045, 0.9653798000072129, 0.9843490999774076, 0.9995977000216953, 1.0177574999979697, 1.0336314999731258, 1.051012100011576, 1.066387599974405, 1.0840422000037506, 1.1002032000105828, 1.1186907999799587, 1.1339800999849103, 1.151265099993907, 1.1677012000000104, 1.185338800016325, 1.1996201999718323, 1.2172973999986425, 1.2337729000137188, 1.2521483000018634, 1.2665321999811567, 1.2836356000043452, 1.3002434999798425]
S03;11;0;0;1;False;3000;True;;8;-42.77730390621828;drag;L;6.4630475;-4.166965;-32.81;7.69;1.1321581000229344;1.132328299980145;1685460285.3894618;1685460285.4040916;1685460286.1600537;1685460286.6600246;1685460289.659779;1685460290.79278;[0.0566934, 0.14173351, 0.19842692, 0.2267736, 0.2551203, 0.2551203, 0.2551203, 0.2551203, 0.2551203, 0.2551203, 0.2551203, 0.2551203, 0.2551203, 0.2551203, 0.2551203, 0.2267736, 0.2267736, 0.2267736, 0.2267736, 0.2267736, 0.2267736, 0.2267736, 0.19842692, 0.19842692, 0.19842692, 0.19842692, 0.1700802, 0.1700802, 0.14173351, 0.14173351, 0.14173351, 0.14173351, 0.14173351, 0.14173351, 0.14173351, 0.14173351, 0.14173351, 0.14173351, 0.14173351, 0.42520052, 1.7008021, 3.0330973, 3.4299507, 3.6567245, 4.081925, 4.478779, 4.875633, 5.32918, 5.5559535, 5.7260337, 5.8394203, 5.896114, 5.981154, 6.1228876, 6.2079277, 6.321315, 6.378008, 6.4063544, 6.4630475, 6.4630475, 6.491395, 6.491395, 6.491395, 6.491395, 6.491395, 6.491395, 6.491395, 6.4630475];[-0.14173351, -0.28346702, -0.36850712, -0.42520052, -0.48189393, -0.5102406, -0.5102406, -0.5102406, -0.5102406, -0.5102406, -0.48189393, -0.48189393, -0.4535472, -0.4535472, -0.4535472, -0.4535472, -0.4535472, -0.4535472, -0.42520052, -0.42520052, -0.42520052, -0.42520052, -0.42520052, -0.39685383, -0.39685383, -0.39685383, -0.36850712, -0.36850712, -0.36850712, -0.36850712, -0.36850712, -0.36850712, -0.36850712, -0.3401604, -0.3401604, -0.3401604, -0.3401604, -0.3401604, -0.3401604, -0.42520052, -1.1622148, -2.0976558, -2.381123, -2.57955, -2.8913634, -3.1748307, -3.4299507, -3.7417645, -3.8551514, -3.968538, -4.025232, -4.081925, -4.081925, -4.110272, -4.110272, -4.110272, -4.110272, -4.110272, -4.110272, -4.110272, -4.110272, -4.110272, -4.110272, -4.110272, -4.110272, -4.1386185, -4.1386185, -4.166965];[0.0045680999755859375, 0.01826550002442673, 0.03230770002119243, 0.049871600000187755, 0.06756489997496828, 0.0824317000224255, 0.10164319997420534, 0.11636699998052791, 0.1343835000297986, 0.15147410001372918, 0.16681969998171553, 0.1824686999898404, 0.19986960000824183, 0.21556440001586452, 0.23322559997905046, 0.2505403999821283, 0.26739450002787635, 0.28240119997644797, 0.3003873000270687, 0.31656310003018007, 0.3351958999992348, 0.3504732000292279, 0.3688232999993488, 0.3836782000144012, 0.400395100004971, 0.4162678000284359, 0.43352299998514354, 0.45022009999956936, 0.4674110999912955, 0.48252710001543164, 0.5008563000010327, 0.5160194999771193, 0.5344609000021592, 0.5492434999905527, 0.5666199999977835, 0.583410500024911, 0.6008835000102408, 0.6165758999995887, 0.6345416000112891, 0.6499329999787733, 0.6674124000128359, 0.6863184000249021, 0.7013704000273719, 0.7172427999903448, 0.7346650999970734, 0.7494177999906242, 0.7664617000264116, 0.7838321999879554, 0.8002931000082754, 0.8172957000206225, 0.8346593999885954, 0.8501777999917977, 0.8686873000115156, 0.8830499000032432, 0.901316899980884, 0.9164229999878444, 0.9336942000081763, 0.9496155999950133, 0.9680205999757163, 0.9833324999781325, 1.0007674000225961, 1.0164385000243783, 1.0347251999774016, 1.049322500010021, 1.066447800025344, 1.0823080000118352, 1.0992806000285782, 1.1164802000275813]
S03;12;0;0;1;False;1000;True;;8;-158.56249334628063;drag;L;-6.888248;-4.5071254;-146.8;8.23;1.2489969999878667;1.2490966999903321;1685460291.5860686;1685460291.6046004;1685460292.3590853;1685460292.8604856;1685460293.8422403;1685460295.0920002;[0.0, 0.0, 0.0, 0.0, 0.0, 0.0, 0.0, 0.0, 0.0, 0.0, 0.0, 0.0, 0.0, 0.0, 0.0, 0.0, 0.0, 0.0, 0.0, 0.0, 0.0, 0.0, 0.0, 0.0, 0.0, 0.0, 0.0, 0.0, 0.0, 0.0, 0.0, 0.0, 0.0, 0.0, 0.0, 0.0, 0.0, 0.0, 0.0, 0.0, 0.0, 0.0, 0.0, 0.0, 0.0, -0.39685383, -1.3039483, -2.211043, -2.66459, -3.2315238, -3.514991, -3.770111, -3.9401915, -4.252005, -4.5354724, -5.017366, -5.32918, -5.612647, -5.924461, -6.037847, -6.1228876, -6.2079277, -6.2362742, -6.378008, -6.4630475, -6.5197415, -6.6047816, -6.633128, -6.6898212, -6.7181687, -6.774862, -6.8032084, -6.8599014, -6.8599014, -6.888248];[0.0, 0.0, 0.0, 0.0, 0.0, 0.0, 0.0, 0.0, 0.0, 0.0, 0.0, 0.0, 0.0, 0.0, 0.0, 0.0, 0.0, 0.0, 0.0, 0.0, 0.0, 0.0, 0.0, 0.0, 0.0, 0.0, 0.0, 0.0, 0.0, 0.0, 0.0, 0.0, 0.0, 0.0, 0.0, 0.0, 0.0, 0.0, 0.0, 0.0, 0.0, 0.0, 0.0, 0.0, 0.0, -0.28346702, -1.0204812, -1.7291489, -2.0976558, -2.5228565, -2.7212832, -2.8630168, -3.0047503, -3.146484, -3.2598708, -3.4866443, -3.6567245, -3.770111, -3.8834982, -3.9401915, -3.968538, -3.996885, -4.025232, -4.1386185, -4.1953115, -4.252005, -4.337045, -4.365392, -4.3937387, -4.422086, -4.4504323, -4.478779, -4.5071254, -4.5071254, -4.5071254];[0.004421899968292564, 0.01828299998305738, 0.034012499963864684, 0.05110069998772815, 0.06667440000455827, 0.08467319997726008, 0.10056719998829067, 0.1174860000028275, 0.1330053999554366, 0.15202069998485968, 0.16779829998267815, 0.18529639998450875, 0.1989439000026323, 0.21764609997626394, 0.23341619997518137, 0.2519575000042096, 0.2666387999779545, 0.2840955999563448, 0.30060439999215305, 0.3176459999522194, 0.3336121999891475, 0.352208599972073, 0.3669577999971807, 0.38407839997671545, 0.4009215999976732, 0.4191516999853775, 0.434019599983003, 0.45191519998479635, 0.4676658999524079, 0.48486899997806177, 0.5012833999935538, 0.5184211999876425, 0.533297699992545, 0.5511614999850281, 0.5674986999947578, 0.5849060000036843, 0.6012418000027537, 0.6178990000043996, 0.6329013999784365, 0.6512083999696188, 0.6661929999827407, 0.6843425999977626, 0.6989440000033937, 0.7164183999993838, 0.7336809999542311, 0.7506812000065111, 0.7667290999670513, 0.7856183999683708, 0.799227699986659, 0.8199783999589272, 0.8340485999942757, 0.8518009999534115, 0.8675083999987692, 0.8829775999765843, 0.9005096000037156, 0.9178198999725282, 0.9336619999958202, 0.9510836999979801, 0.9662344999960624, 0.9843608999508433, 1.0004571999888867, 1.0170213999808766, 1.0336315999738872, 1.0512746999738738, 1.0674112999695353, 1.0855110999546014, 1.0995444000000134, 1.1178195999818854, 1.1364842999610119, 1.1498556999722496, 1.166762899956666, 1.184415399970021, 1.199783899995964, 1.2164219999685884, 1.233443500008434]
S03;13;0;0;1;False;3000;True;;8;-177.58909927722138;drag;L;-7.540222;-2.2393894;-163.46;7.87;1.5315934999962337;1.5317047000280581;1685460295.9029627;1685460295.9219842;1685460296.6758943;1685460297.177144;1685460300.1762671;1685460301.7077975;[0.0, 0.0, 0.0, 0.0, 0.0, 0.0, 0.0, 0.0, 0.0, 0.0, 0.0, 0.0, 0.0, 0.0, 0.0, 0.0, 0.0, 0.0, 0.0, 0.0, 0.0, 0.0, 0.0, 0.0, 0.0, 0.0, 0.0, 0.0, 0.0, 0.0, -0.39685383, -1.3606416, -1.6724553, -2.1543493, -2.466163, -2.6929367, -3.2031772, -3.5433376, -3.8834982, -4.563819, -5.045713, -5.5559535, -6.434701, -6.774862, -7.143369, -7.313449, -7.3701425, -7.426836, -7.5118756, -7.540222, -7.681956, -7.7386494, -7.8520365, -7.9087296, -7.937076, -7.9654226, -7.9654226, -7.99377, -8.022117, -8.022117, -8.050464, -8.050464, -8.050464, -8.050464, -8.050464, -8.050464, -8.050464, -8.022117, -7.9654226, -7.937076, -7.9087296, -7.880383, -7.8520365, -7.8520365, -7.82369, -7.82369, -7.795343, -7.795343, -7.795343, -7.7669964, -7.7669964, -7.7386494, -7.7386494, -7.710303, -7.681956, -7.6536093, -7.6536093, -7.6252627, -7.6252627, -7.6252627, -7.5685697, -7.540222];[0.0, 0.0, 0.0, 0.0, 0.0, 0.0, 0.0, 0.0, 0.0, 0.0, 0.0, 0.0, 0.0, 0.0, 0.0, 0.0, 0.0, 0.0, 0.0, 0.0, 0.0, 0.0, 0.0, 0.0, 0.0, 0.0, 0.0, 0.0, 0.0, 0.0, -0.1133868, -0.39685383, -0.4535472, -0.6236274, -0.7086675, -0.73701423, -0.8220543, -0.87874776, -0.93544114, -0.9921345, -1.0204812, -1.0204812, -1.0204812, -1.0204812, -1.0771747, -1.1055214, -1.1055214, -1.1338681, -1.1622148, -1.1905615, -1.2472548, -1.332295, -1.417335, -1.4740285, -1.5023751, -1.5307219, -1.5307219, -1.5590686, -1.5590686, -1.5874153, -1.5874153, -1.6157619, -1.6157619, -1.6157619, -1.6157619, -1.6441087, -1.6724553, -1.7291489, -1.8708823, -1.984269, -2.0693092, -2.1260026, -2.1543493, -2.182696, -2.211043, -2.211043, -2.211043, -2.211043, -2.211043, -2.211043, -2.211043, -2.211043, -2.211043, -2.211043, -2.211043, -2.211043, -2.2393894, -2.2393894, -2.2393894, -2.2393894, -2.2393894, -2.2393894];[0.004389900015667081, 0.01744440000038594, 0.03502490004757419, 0.05075860000215471, 0.06873230001656339, 0.08341260004090145, 0.10188960004597902, 0.11738260003039613, 0.13482080004177988, 0.15012500004377216, 0.16816760000074282, 0.18366070004412904, 0.19986970000900328, 0.21646180003881454, 0.23448490002192557, 0.2512146000517532, 0.2692043000133708, 0.28380690002813935, 0.30135150003479794, 0.3163219999987632, 0.3353159000398591, 0.3492641000193544, 0.3675770999980159, 0.3820045000175014, 0.3989210000145249, 0.4163645000080578, 0.43353450001450256, 0.44985299999825656, 0.4660598000045866, 0.4826063000364229, 0.501800500031095, 0.5168563000042923, 0.5335246000322513, 0.5523063000291586, 0.5662416000268422, 0.58295300003374, 0.5999055000138469, 0.61597880005138, 0.6337978000519797, 0.6493878000183031, 0.6672249000403099, 0.6837943000136875, 0.7006307000410743, 0.7169751000474207, 0.7339595000375994, 0.7490493000368588, 0.7676231000223197, 0.7826674000243656, 0.800691700016614, 0.8171771000488661, 0.8334994000033475, 0.8497271999949589, 0.8667431000503711, 0.8826869000331499, 0.9028627999941818, 0.9169385000132024, 0.9339976000483148, 0.950187900045421, 0.9677047000150196, 0.9833511000033468, 1.000261800014414, 1.0165586000075564, 1.0338714999961667, 1.0488742000306956, 1.0673819000367075, 1.0828702000435442, 1.0996473000268452, 1.116580400033854, 1.133940400031861, 1.1480266000144184, 1.1660898000118323, 1.18254710000474, 1.2012623000191525, 1.2167276000254788, 1.2336290000239387, 1.2503509999951348, 1.2683908000472002, 1.2837653000024147, 1.30173410003772, 1.3162955000298098, 1.333798800013028, 1.3496383000165224, 1.366717700031586, 1.3832261000061408, 1.4000158000271767, 1.416116000036709, 1.435235500044655, 1.4510133000439964, 1.4678464000462554, 1.4838687000446953, 1.500861700042151, 1.5165056000114419]
S03;14;0;0;1;False;3000;True;;8;-5.60412812797834;drag;L;6.094541;-1.417335;-13.09;6.26;1.299467500008177;1.299536900012754;1685460302.399772;1685460302.4040987;1685460303.1592598;1685460303.6601746;1685460306.6576364;1685460307.9570324;[0.0, 0.0, 0.0, 0.0, 0.0, 0.0, 0.0, 0.0, 0.0, 0.0, 0.0, 0.0, 0.0, 0.0, 0.0, 0.0, 0.0, 0.0, 0.0, 0.0, 0.0, 0.0, 0.0, 0.0, 0.0, 0.0, 0.0, 0.0, 0.0, 0.0, 0.0, 0.0, 0.0, 0.93544114, 1.6724553, 2.0409625, 2.182696, 2.2960827, 2.466163, 2.6362433, 2.8913634, 3.0614438, 3.2031772, 3.4582977, 3.6850712, 4.166965, 4.5071254, 4.818939, 5.0740595, 5.2441397, 5.3575263, 5.5559535, 5.697687, 5.811074, 5.924461, 5.9528074, 5.981154, 6.0095005, 6.0095005, 6.037847, 6.037847, 6.0661945, 6.0661945, 6.0661945, 6.0661945, 6.0661945, 6.0661945, 6.0661945, 6.094541, 6.094541, 6.094541, 6.094541, 6.094541, 6.094541, 6.094541, 6.094541, 6.094541, 6.094541];[0.0, 0.0, 0.0, 0.0, 0.0, 0.0, 0.0, 0.0, 0.0, 0.0, 0.0, 0.0, 0.0, 0.0, 0.0, 0.0, 0.0, 0.0, 0.0, 0.0, 0.0, 0.0, 0.0, 0.0, 0.0, 0.0, 0.0, 0.0, 0.0, 0.0, 0.0, 0.0, 0.0, -0.0566934, -0.19842692, -0.2551203, -0.28346702, -0.28346702, -0.3118137, -0.36850712, -0.4535472, -0.48189393, -0.53858733, -0.59528077, -0.6803208, -0.79370767, -0.87874776, -0.96378785, -1.0204812, -1.0771747, -1.1055214, -1.2189082, -1.2472548, -1.3039483, -1.3606416, -1.3889884, -1.3889884, -1.417335, -1.417335, -1.417335, -1.417335, -1.417335, -1.417335, -1.417335, -1.417335, -1.417335, -1.417335, -1.417335, -1.417335, -1.417335, -1.417335, -1.417335, -1.417335, -1.417335, -1.417335, -1.417335, -1.417335, -1.417335];[0.0037875999696552753, 0.017557599989231676, 0.03592140000546351, 0.05055639997590333, 0.06864810001570731, 0.0838274999987334, 0.1022880999953486, 0.1166541000129655, 0.13433660002192482, 0.1518080999958329, 0.1693173999665305, 0.18506109999725595, 0.2008297999855131, 0.21756509999977425, 0.23502379999263212, 0.25138590001733974, 0.2695275999722071, 0.2841376999858767, 0.30260439997073263, 0.31802810000954196, 0.3353381999768317, 0.3517030000220984, 0.36814229999436066, 0.38435190002201125, 0.4007617000024766, 0.41725549998227507, 0.4356089999782853, 0.4496449999860488, 0.46792179998010397, 0.48406609997618943, 0.5007571000023745, 0.5173889999859966, 0.5350477999891154, 0.5504136999952607, 0.5681471999851055, 0.584735999989789, 0.6019243000191636, 0.6172143999719992, 0.6341786999837495, 0.6509770000120625, 0.6677520999801345, 0.6827597999945283, 0.7003985000192188, 0.7167478000046685, 0.7347506000078283, 0.7529519000090659, 0.7679130000178702, 0.7842399000073783, 0.8005223000072874, 0.8172220999840647, 0.8354311999864876, 0.850282299972605, 0.8684225999750197, 0.884898999996949, 0.9010427999892272, 0.9178271999699064, 0.9343676000135019, 0.9504403999890201, 0.967607099970337, 0.9831440999987535, 1.001797600009013, 1.0172094000154175, 1.0353840999887325, 1.0512896999716759, 1.0691544999717735, 1.0838107999879867, 1.1015449999831617, 1.1168383000185713, 1.1346927999984473, 1.1504422000143677, 1.1666413000202738, 1.1826793000218458, 1.200740100000985, 1.2168563000159338, 1.2348595000221394, 1.2511558000114746, 1.2680449999752454, 1.2840725000132807]
S03;15;0;0;1;False;1000;True;;8;-25.87695121283137;drag;L;7.3984895;-3.3732576;-24.51;8.13;4.583130400045775;4.583243799977936;1685460308.6548903;1685460308.6709151;1685460309.424281;1685460309.926534;1685460310.9080749;1685460315.4910276;[0.0, 0.0, 0.0, 0.0, 0.0, 0.0, 0.0, 0.0, 0.0, 0.0, 0.0, 0.0, 0.0, 0.0, 0.0, 0.0, 0.0, 0.0, 0.0, 0.0, 0.0, 0.0, 0.0, 0.0, 0.0, 0.0, 0.0, 0.0, 0.0, 0.0, 0.0, 0.0, 0.0, 0.0, 1.0204812, 2.6078966, 4.3086987, 5.527607, 6.6614747, 7.596916, 7.795343, 7.82369, 7.82369, 7.82369, 7.540222, 7.540222, 7.540222, 7.540222, 7.540222, 7.540222, 7.540222, 7.540222, 7.540222, 7.540222, 7.540222, 7.540222, 7.540222, 7.540222, 7.540222, 7.540222, 7.540222, 7.540222, 7.540222, 7.540222, 7.540222, 7.540222, 7.540222, 7.540222, 7.540222, 7.540222, 7.540222, 7.540222, 7.540222, 7.540222, 7.540222, 7.540222, 7.540222, 7.540222, 7.540222, 7.540222, 7.540222, 7.540222, 7.540222, 7.540222, 7.540222, 7.540222, 7.540222, 7.540222, 7.540222, 7.540222, 7.540222, 7.540222, 7.540222, 7.540222, 7.540222, 7.540222, 7.540222, 7.540222, 7.540222, 7.540222, 7.540222, 7.540222, 7.540222, 7.540222, 7.540222, 7.540222, 7.540222, 7.540222, 7.540222, 7.540222, 7.540222, 7.540222, 7.540222, 7.540222, 7.540222, 7.540222, 7.540222, 7.540222, 7.540222, 7.540222, 7.540222, 7.540222, 7.540222, 7.540222, 7.540222, 7.540222, 7.540222, 7.540222, 7.540222, 7.540222, 7.540222, 7.540222, 7.540222, 7.540222, 7.540222, 7.540222, 7.540222, 7.540222, 7.4551826, 7.3984895, 7.341796, 7.228409, 7.1717157, 7.086675, 7.086675, 7.029982, 7.029982, 7.0016356, 7.0016356, 7.0016356, 7.0016356, 7.0016356, 7.0016356, 7.0016356, 7.0016356, 7.0016356, 7.0016356, 7.0016356, 7.0016356, 7.0016356, 7.0016356, 7.0016356, 7.0016356, 7.0016356, 7.0016356, 7.0016356, 7.0016356, 7.0016356, 7.0016356, 7.0016356, 7.0016356, 7.0016356, 7.0016356, 7.0016356, 7.0016356, 7.0016356, 7.0016356, 7.0016356, 7.0016356, 7.0016356, 7.0016356, 7.0016356, 7.0016356, 7.0016356, 7.0016356, 7.0016356, 7.0016356, 7.0016356, 7.0016356, 7.0016356, 7.0016356, 7.0016356, 7.0016356, 7.0016356, 7.0016356, 7.0016356, 7.0016356, 7.0016356, 7.0016356, 7.0016356, 7.0016356, 7.0016356, 7.0016356, 7.0016356, 7.0016356, 7.0016356, 7.0016356, 7.0016356, 7.143369, 7.228409, 7.313449, 7.341796, 7.3701425, 7.3701425, 7.3984895, 7.3984895, 7.3984895, 7.3984895, 7.3984895, 7.3984895, 7.3984895, 7.3984895, 7.3984895, 7.3984895, 7.3984895, 7.3984895, 7.3984895, 7.3984895, 7.3984895, 7.3984895, 7.3984895, 7.3984895, 7.3984895, 7.3984895, 7.3984895, 7.3984895, 7.3984895, 7.3984895, 7.3984895, 7.3984895, 7.3984895, 7.3984895, 7.3984895, 7.3984895, 7.3984895, 7.3984895, 7.3984895, 7.3984895, 7.3984895, 7.3984895, 7.3984895, 7.3984895, 7.3984895, 7.3984895, 7.3984895, 7.3984895, 7.3984895, 7.3984895, 7.3984895, 7.3984895, 7.3984895, 7.3984895, 7.3984895, 7.3984895, 7.3984895, 7.3984895, 7.3984895, 7.3984895, 7.3984895, 7.3984895, 7.3984895, 7.3984895, 7.3984895, 7.3984895, 7.3984895];[0.0, 0.0, 0.0, 0.0, 0.0, 0.0, 0.0, 0.0, 0.0, 0.0, 0.0, 0.0, 0.0, 0.0, 0.0, 0.0, 0.0, 0.0, 0.0, 0.0, 0.0, 0.0, 0.0, 0.0, 0.0, 0.0, 0.0, 0.0, 0.0, 0.0, 0.0, 0.0, 0.0, 0.0, -0.48189393, -1.3889884, -2.5512033, -3.3449106, -3.996885, -4.478779, -4.620512, -4.620512, -4.620512, -4.620512, -4.5071254, -4.5071254, -4.5071254, -4.5071254, -4.5071254, -4.5071254, -4.5071254, -4.5071254, -4.5071254, -4.5071254, -4.5071254, -4.5071254, -4.5071254, -4.5071254, -4.5071254, -4.5071254, -4.5071254, -4.5071254, -4.5071254, -4.5071254, -4.5071254, -4.5071254, -4.5071254, -4.5071254, -4.5071254, -4.5071254, -4.5071254, -4.5071254, -4.5071254, -4.5071254, -4.5071254, -4.5071254, -4.5071254, -4.5071254, -4.5071254, -4.5071254, -4.5071254, -4.5071254, -4.5071254, -4.5071254, -4.5071254, -4.5071254, -4.5071254, -4.5071254, -4.5071254, -4.5071254, -4.5071254, -4.5071254, -4.5071254, -4.5071254, -4.5071254, -4.5071254, -4.5071254, -4.5071254, -4.5071254, -4.5071254, -4.5071254, -4.5071254, -4.5071254, -4.5071254, -4.5071254, -4.5071254, -4.5071254, -4.5071254, -4.5071254, -4.5071254, -4.5071254, -4.5071254, -4.5071254, -4.5071254, -4.5071254, -4.5071254, -4.5071254, -4.5071254, -4.5071254, -4.5071254, -4.5071254, -4.5071254, -4.5071254, -4.5071254, -4.5071254, -4.5071254, -4.5071254, -4.5071254, -4.5071254, -4.5071254, -4.5071254, -4.5071254, -4.5071254, -4.5071254, -4.5071254, -4.5071254, -4.5071254, -4.5071254, -4.4504323, -4.3937387, -4.337045, -4.1953115, -4.1386185, -4.0535784, -3.996885, -3.996885, -3.968538, -3.968538, -3.9401915, -3.911845, -3.911845, -3.911845, -3.911845, -3.911845, -3.911845, -3.911845, -3.911845, -3.911845, -3.911845, -3.911845, -3.911845, -3.911845, -3.911845, -3.911845, -3.911845, -3.911845, -3.911845, -3.911845, -3.911845, -3.911845, -3.911845, -3.911845, -3.911845, -3.911845, -3.911845, -3.911845, -3.911845, -3.911845, -3.911845, -3.911845, -3.911845, -3.911845, -3.911845, -3.911845, -3.911845, -3.911845, -3.911845, -3.911845, -3.911845, -3.911845, -3.911845, -3.911845, -3.911845, -3.911845, -3.911845, -3.911845, -3.911845, -3.911845, -3.911845, -3.911845, -3.911845, -3.911845, -3.911845, -3.911845, -3.911845, -3.911845, -3.911845, -3.911845, -3.6567245, -3.514991, -3.4299507, -3.3732576, -3.3449106, -3.316564, -3.316564, -3.2882173, -3.2882173, -3.2882173, -3.2882173, -3.2882173, -3.2882173, -3.316564, -3.316564, -3.3449106, -3.3732576, -3.3732576, -3.3732576, -3.3732576, -3.3732576, -3.3732576, -3.3732576, -3.3732576, -3.3732576, -3.3732576, -3.3732576, -3.3732576, -3.3732576, -3.3732576, -3.3732576, -3.3732576, -3.3732576, -3.3732576, -3.3732576, -3.3732576, -3.3732576, -3.3732576, -3.3732576, -3.3732576, -3.3732576, -3.3732576, -3.3732576, -3.3732576, -3.3732576, -3.3732576, -3.3732576, -3.3732576, -3.3732576, -3.3732576, -3.3732576, -3.3732576, -3.3732576, -3.3732576, -3.3732576, -3.3732576, -3.3732576, -3.3732576, -3.3732576, -3.3732576, -3.3732576, -3.3732576, -3.3732576, -3.3732576, -3.3732576, -3.3732576, -3.3732576];[0.004423599981237203, 0.019285499991383404, 0.034566599992103875, 0.051746400014963, 0.06924270000308752, 0.08650660002604127, 0.10124360001645982, 0.11974910000571981, 0.13526140002068132, 0.15146339999046177, 0.1685122000053525, 0.1868910000193864, 0.20076109998626634, 0.21657440002309158, 0.2340381999965757, 0.2528415999840945, 0.2669171000015922, 0.28652389999479055, 0.3008860999834724, 0.31861339998431504, 0.3339459000271745, 0.35129080002661794, 0.3672268000082113, 0.3848264000262134, 0.401526500005275, 0.41838250000728294, 0.43444099999032915, 0.4521553000085987, 0.468204099975992, 0.4857557999785058, 0.5028913000132889, 0.5200840000179596, 0.5350442000199109, 0.5532816000049934, 0.5682848999858834, 0.5853719000006095, 0.6026393999927677, 0.6170310999732465, 0.6342996999737807, 0.6514736000099219, 0.6674132000189275, 0.6850728000281379, 0.7002775000291876, 0.7178139999741688, 0.7357135000056587, 0.7513116999762133, 0.7675404999754392, 0.7854963000281714, 0.8016475000185892, 0.8186929000075907, 0.8347232000087388, 0.852405000012368, 0.868564400007017, 0.8855903000221588, 0.9014254999929108, 0.9197558999876492, 0.9345819000154734, 0.953633000026457, 0.9685592000023462, 0.9860663000144996, 1.0012192000285722, 1.019653900002595, 1.0344643000280485, 1.052589299972169, 1.0678481999784708, 1.085697499976959, 1.1005359999835491, 1.1188954000244848, 1.1343953000032343, 1.1513768000295386, 1.167757100018207, 1.1854077000170946, 1.2003903000149876, 1.219245399988722, 1.2332248999737203, 1.2518025999888778, 1.2669946000096388, 1.286053100018762, 1.3024365999735892, 1.318221200024709, 1.3350899000070058, 1.3519629000220448, 1.3668463000212796, 1.3846593999769539, 1.400346799986437, 1.418126399978064, 1.4341556000290439, 1.4525947999791242, 1.468226999975741, 1.4854899999918416, 1.501914000022225, 1.5192349000135437, 1.5353200000245124, 1.5529593999963254, 1.5681768999784254, 1.5854459999827668, 1.6015513999736868, 1.618585999996867, 1.6336240000091493, 1.650383000029251, 1.6676174000022002, 1.6861113000195473, 1.7012803999823518, 1.719592300010845, 1.734193200012669, 1.7528429999947548, 1.7682536999927834, 1.7855403000139631, 1.8020662000053562, 1.8192744000116363, 1.834779000026174, 1.851947100018151, 1.8684910999727435, 1.885547799989581, 1.9014007999794558, 1.9191094000125304, 1.934589300013613, 1.9524298000033014, 1.9673988000140525, 1.9855017000227235, 2.0017246999777853, 2.0187032999820076, 2.034367599990219, 2.052086399984546, 2.067114599980414, 2.0852993999724276, 2.1012694999808446, 2.119141299976036, 2.1352714999811724, 2.151456599996891, 2.1669530000071973, 2.1848426000215113, 2.200775299977977, 2.21797370002605, 2.233433499990497, 2.2519488999969326, 2.266937099979259, 2.284713600005489, 2.301287800015416, 2.318066200008616, 2.3340149000287056, 2.3509049999993294, 2.366599500004668, 2.385487199993804, 2.401363199984189, 2.4175900000263937, 2.434976699994877, 2.4524384000105783, 2.467358099995181, 2.4846427000011317, 2.501536700001452, 2.5186330000287853, 2.533736500015948, 2.551358300028369, 2.566735200001858, 2.5843008999945596, 2.600470800010953, 2.6180185999837704, 2.6337434999877587, 2.653035999974236, 2.666294199996628, 2.6839881999767385, 2.700416399980895, 2.7178766999859363, 2.733692899986636, 2.7516017999732867, 2.7664663000032306, 2.784439700015355, 2.7997728000045754, 2.818981899996288, 2.83458129997598, 2.8516393000027165, 2.8670662000076845, 2.8850138999987394, 2.9006427000276744, 2.918788700015284, 2.9351340000284836, 2.9510123999789357, 2.9673831000109203, 2.98530350002693, 3.000237100000959, 3.0184340000269003, 3.034393200010527, 3.0514766999986023, 3.0676218000007793, 3.0842720000073314, 3.1006599999964237, 3.1179309000144713, 3.1342512000119314, 3.15197890001582, 3.167652799980715, 3.18584320001537, 3.2008476000046358, 3.2177008999860846, 3.234280699980445, 3.252243799972348, 3.2681011999957263, 3.2847934999736026, 3.300389099982567, 3.3180627999827266, 3.3344899999792688, 3.353168800007552, 3.3681972000049427, 3.3845714000053704, 3.401694000000134, 3.417850699974224, 3.4338592999847606, 3.4523492999724112, 3.4681483000167646, 3.4853832999942824, 3.5020207000197843, 3.517697000002954, 3.537104699993506, 3.551331900001969, 3.567196000018157, 3.5845207999809645, 3.600274799973704, 3.6190290999948047, 3.6329791999887675, 3.651814499986358, 3.667604200018104, 3.6853425999870524, 3.701284900016617, 3.7199058000114746, 3.7333279000013135, 3.7509416000102647, 3.768666799995117, 3.7841391999972984, 3.8000342000159435, 3.8181129000149667, 3.8337242000270635, 3.8522520000115037, 3.86596239998471, 3.8835110000218265, 3.8995757999946363, 3.9177859000046737, 3.933398900029715, 3.950870400003623, 3.967039000010118, 3.9851534999907017, 4.00119729997823, 4.018440400017425, 4.034287700022105, 4.051344799983781, 4.067201600002591, 4.084348000003956, 4.100805900001433, 4.117760699999053, 4.133869800018147, 4.152022399997804, 4.1675228999811225, 4.1860408000065945, 4.201152800000273, 4.218523400020786, 4.234093900013249, 4.251530200010166, 4.267351999995299, 4.284513599995989, 4.3008908000192605, 4.319324499985669, 4.336034499981906, 4.351570900005754, 4.368080899992492, 4.385031600017101, 4.40107269998407, 4.418694499996491, 4.434436000010464, 4.451954399992246, 4.466847800009418, 4.484696400002576, 4.500686799990945, 4.5184145999955945, 4.5345889999880455, 4.550978299987037, 4.567183299979661]
S03;16;0;0;1;False;3000;True;;8;-130.9891711705251;drag;L;-4.422086;-6.7465153;-123.24;8.07;1.5480829000007361;1.5481689000152983;1685460316.289991;1685460316.3034403;1685460317.0583322;1685460317.5600405;1685460320.557738;1685460322.106679;[0.0, 0.0, 0.0, 0.0, 0.0, 0.0, 0.0, 0.0, 0.0, 0.0, 0.0, 0.0, 0.0, 0.0, 0.0, 0.0, 0.0, 0.0, 0.0, 0.0, 0.0, 0.0, 0.0, 0.0, 0.0, 0.0, 0.0, 0.0, 0.0, 0.0, 0.0, 0.0, 0.0, 0.0, 0.0, 0.0, 0.0, 0.0, 0.0, 0.0, 0.0, 0.0, 0.0, 0.0, 0.0, 0.0, 0.0, 0.0, 0.0, 0.0, 0.0, 0.0, 0.0, 0.0, 0.0, 0.0, 0.0, 0.0, -0.1133868, -0.87874776, -1.2756016, -1.6724553, -1.8708823, -1.984269, -2.1543493, -2.2677362, -2.381123, -2.57955, -2.66459, -2.8063235, -3.0614438, -3.2598708, -3.4299507, -3.4866443, -3.5433376, -3.6000311, -3.6850712, -3.7417645, -3.8268046, -3.8551514, -3.911845, -3.9401915, -4.025232, -4.1386185, -4.1953115, -4.2803516, -4.337045, -4.365392, -4.3937387, -4.422086, -4.422086, -4.422086, -4.422086];[0.0, 0.0, 0.0, 0.0, 0.0, 0.0, 0.0, 0.0, 0.0, 0.0, 0.0, 0.0, 0.0, 0.0, 0.0, 0.0, 0.0, 0.0, 0.0, 0.0, 0.0, 0.0, 0.0, 0.0, 0.0, 0.0, 0.0, 0.0, 0.0, 0.0, 0.0, 0.0, 0.0, 0.0, 0.0, 0.0, 0.0, 0.0, 0.0, 0.0, 0.0, 0.0, 0.0, 0.0, 0.0, 0.0, 0.0, 0.0, 0.0, 0.0, 0.0, 0.0, 0.0, 0.0, 0.0, 0.0, 0.0, 0.0, -0.14173351, -1.3606416, -2.0409625, -2.8063235, -3.146484, -3.4299507, -3.798458, -4.0535784, -4.2803516, -4.563819, -4.7055526, -4.9039793, -5.2441397, -5.4709134, -5.66934, -5.75438, -5.811074, -5.8677673, -5.981154, -6.0661945, -6.1795807, -6.2362742, -6.292968, -6.321315, -6.4063544, -6.5197415, -6.6047816, -6.6614747, -6.7181687, -6.7181687, -6.7465153, -6.7465153, -6.7465153, -6.7465153, -6.7465153];[0.004407600034028292, 0.016304599994327873, 0.034824500035028905, 0.05054240004392341, 0.06899040000280365, 0.08292830002028495, 0.10254530003294349, 0.11728609999408945, 0.13445370004046708, 0.15085949999047443, 0.1677549000014551, 0.18382310000015423, 0.19983870000578463, 0.21767440001713112, 0.23405090003507212, 0.25024770002346486, 0.2680424000136554, 0.2829996999935247, 0.30130729998927563, 0.315873300016392, 0.3354930999921635, 0.3504634000128135, 0.36807790002785623, 0.38454250001814216, 0.40097250003600493, 0.4170058000017889, 0.43653020000783727, 0.4503363000112586, 0.46802050003316253, 0.48372389998985454, 0.5011536999954842, 0.5169922999921255, 0.5342217000434175, 0.5502500000293367, 0.5672107000136748, 0.5847748999949545, 0.6014110000105575, 0.6172894000192173, 0.6349301000009291, 0.6497593999956734, 0.6681829000008292, 0.6833026999956928, 0.7013073000125587, 0.7169307000003755, 0.7350615000468679, 0.7510296000400558, 0.7670785000082105, 0.783009700011462, 0.8018609000137076, 0.8173763999948278, 0.8359104000264779, 0.8500022999942303, 0.8674878000165336, 0.884662099997513, 0.9008232000051066, 0.9172611000249162, 0.9342873000423424, 0.9502814000006765, 0.9676859000464901, 0.9832069000112824, 0.9996364000253379, 1.0189045000006445, 1.0332405000226572, 1.0492038000375032, 1.067335700034164, 1.0831923999940045, 1.1013057000236586, 1.1162681000423618, 1.134507700044196, 1.15019429998938, 1.1666299999924377, 1.1838694000034593, 1.2005650000064634, 1.215692099998705, 1.2338549999985844, 1.2495429000118747, 1.2683873000205494, 1.2835419999901205, 1.300251400039997, 1.3165626000263728, 1.3332412000163458, 1.3493851000093855, 1.3690745999920182, 1.3830431000096723, 1.3999139000079595, 1.4165790000115521, 1.43347420002101, 1.4501763000153005, 1.4669992999988608, 1.4832592000020668, 1.501869900035672, 1.5157397000002675, 1.5336278000031598]
S03;17;0;0;1;False;1000;False;;8;50.5407847171185;drag;L;nan;nan;nan;nan;0.002525900024920702;0.002624899963848293;1685460322.8957062;1685460322.9029477;1685460323.6569624;1685460324.159193;1685460325.1233907;1685460325.126409;[];[];[]
S03;17;0;0;1;False;1000;True;;8;169.26201848602432;drag;L;-7.596916;1.1338681;171.51;7.68;1.8010251999949105;1.8011032999493182;1685460325.7200744;1685460325.7358313;1685460326.4897995;1685460326.9901917;1685460327.973612;1685460329.7746773;[0.0, 0.0, 0.0, 0.0, 0.0, 0.0, 0.0, 0.0, 0.0, 0.0, 0.0, 0.0, 0.0, 0.0, 0.0, 0.0, 0.0, 0.0, 0.0, 0.0, 0.0, 0.0, 0.0, 0.0, 0.0, 0.0, 0.0, 0.0, 0.0, 0.0, 0.0, 0.0, 0.0, -2.7496302, -5.1024065, -5.981154, -6.6047816, -7.5118756, -8.07881, -8.815824, -9.212678, -9.496145, -9.836306, -10.034732, -10.204813, -10.403239, -10.459932, -10.544973, -10.544973, -10.573319, -10.573319, -10.573319, -10.573319, -10.573319, -10.488279, -10.261506, -9.978039, -9.6662245, -9.269372, -9.099292, -8.957558, -8.900865, -8.872518, -8.815824, -8.7591305, -8.702437, -8.58905, -8.532357, -8.390623, -8.277237, -8.220544, -8.135503, -8.07881, -8.050464, -8.022117, -7.99377, -7.99377, -7.937076, -7.937076, -7.937076, -7.9087296, -7.880383, -7.8520365, -7.82369, -7.795343, -7.7669964, -7.710303, -7.681956, -7.681956, -7.6536093, -7.6536093, -7.6252627, -7.596916, -7.596916, -7.5685697, -7.5685697, -7.5685697, -7.5685697, -7.5685697, -7.5685697, -7.5685697, -7.5685697, -7.5685697, -7.5685697, -7.5685697, -7.5685697, -7.5685697, -7.596916];[0.0, 0.0, 0.0, 0.0, 0.0, 0.0, 0.0, 0.0, 0.0, 0.0, 0.0, 0.0, 0.0, 0.0, 0.0, 0.0, 0.0, 0.0, 0.0, 0.0, 0.0, 0.0, 0.0, 0.0, 0.0, 0.0, 0.0, 0.0, 0.0, 0.0, 0.0, 0.0, 0.0, 0.6236274, 0.96378785, 1.1055214, 1.1055214, 1.0771747, 1.0771747, 1.1622148, 1.2472548, 1.3606416, 1.4740285, 1.5023751, 1.5590686, 1.6157619, 1.6441087, 1.6441087, 1.6441087, 1.6441087, 1.6441087, 1.6441087, 1.6441087, 1.6157619, 1.5590686, 1.332295, 1.1055214, 0.9070944, 0.6803208, 0.59528077, 0.53858733, 0.5102406, 0.5102406, 0.48189393, 0.48189393, 0.48189393, 0.48189393, 0.48189393, 0.48189393, 0.48189393, 0.48189393, 0.48189393, 0.48189393, 0.48189393, 0.48189393, 0.48189393, 0.48189393, 0.48189393, 0.48189393, 0.48189393, 0.48189393, 0.48189393, 0.5102406, 0.53858733, 0.53858733, 0.59528077, 0.6236274, 0.65197414, 0.6803208, 0.6803208, 0.7086675, 0.7086675, 0.7086675, 0.73701423, 0.76536095, 0.76536095, 0.79370767, 0.8220543, 0.8220543, 0.85040104, 0.85040104, 0.87874776, 0.9070944, 0.93544114, 0.9921345, 1.0488279, 1.0771747, 1.1338681];[0.004411499947309494, 0.01880579994758591, 0.033914799976628274, 0.05148719996213913, 0.06765179999638349, 0.08506939996732399, 0.10085709998384118, 0.11915829998906702, 0.1345926999929361, 0.15195999998832121, 0.16702880000229925, 0.18510459997924045, 0.20019119995413348, 0.21764469996560365, 0.23407559999031946, 0.25191110000014305, 0.26872689998708665, 0.2856111999717541, 0.30131929996423423, 0.3201732999878004, 0.3346126999822445, 0.35181049996754155, 0.36805079999612644, 0.38453759998083115, 0.40127219998976216, 0.4184693999704905, 0.4339713999652304, 0.45080279995454475, 0.4679302999866195, 0.48499669996090233, 0.5012982999905944, 0.5185309999505989, 0.5348357999464497, 0.5520130999502726, 0.5671607999829575, 0.5841681999736466, 0.6015122999669984, 0.6178251999663189, 0.6340759999584407, 0.6526356999529526, 0.6666797999641858, 0.6850078999996185, 0.7006712000002153, 0.718145499995444, 0.7342504999833182, 0.7508195999544114, 0.767409099964425, 0.7852092999964952, 0.8005808999878354, 0.817761399957817, 0.8340255999937654, 0.850823299959302, 0.8672248999937437, 0.884647499944549, 0.9002044999506325, 0.9189035999588668, 0.9347752999747172, 0.9523522999952547, 0.9670581999816932, 0.9851599999819882, 1.0032039999496192, 1.0181335999513976, 1.0351351999561302, 1.0529106999747455, 1.0671667999704368, 1.0847501999814995, 1.1006312999525107, 1.1176844000001438, 1.1351344999857247, 1.1513884000014514, 1.1672460999689065, 1.185675899963826, 1.202958999958355, 1.2180396999465302, 1.2342776999576017, 1.2516228999593295, 1.267015799996443, 1.2846862999722362, 1.3007582999998704, 1.3178481999784708, 1.3345192999695428, 1.3539159999927506, 1.3682741999509744, 1.3846452999860048, 1.4007717999629676, 1.4180660999845713, 1.4343273999984376, 1.4524100999697112, 1.4672186999814585, 1.4842741999891587, 1.5005060999537818, 1.5190567999961786, 1.5346869999775663, 1.5513773999991827, 1.5672455999883823, 1.5849929999676533, 1.601790999993682, 1.6212336999597028, 1.633307199983392, 1.650835599983111, 1.6672940999851562, 1.684880799963139, 1.700263199978508, 1.7171739999903366, 1.7343897999962792, 1.7545219999738038, 1.7679935999913141, 1.7839412999455817]
S03;18;0;0;1;False;1000;True;;8;-47.4189568511063;drag;L;4.648859;-4.110272;-41.48;6.21;1.6314012000220828;1.6314982999465428;1685460330.4538443;1685460330.4688725;1685460331.2246103;1685460331.7256038;1685460332.7069817;1685460334.3385189;[0.0, 0.0, 0.0, 0.0, 0.0, 0.0, 0.0, 0.0, 0.0, 0.0, 0.0, 0.0, 0.0, 0.0, 0.0, 0.0, 0.0, 0.0, 0.0, 0.0, 0.0, 0.0, 0.0, 0.0, 0.0, 0.0, 0.0, 0.0, 0.0, 0.0, 0.0, 0.0, 0.0, 0.0, 0.0, 0.0, 0.0, 0.0, 0.0, 0.0, 0.0, 0.0, 0.0, 0.0, 0.53858733, 1.5590686, 2.012616, 2.381123, 2.57955, 2.7779768, 3.0330973, 3.2031772, 3.316564, 3.4866443, 3.5716846, 3.7417645, 3.911845, 4.1386185, 4.3937387, 4.478779, 4.5071254, 4.563819, 4.5921655, 4.620512, 4.620512, 4.620512, 4.620512, 4.620512, 4.620512, 4.620512, 4.620512, 4.5921655, 4.5921655, 4.563819, 4.563819, 4.563819, 4.563819, 4.563819, 4.563819, 4.563819, 4.563819, 4.563819, 4.563819, 4.563819, 4.563819, 4.563819, 4.563819, 4.563819, 4.563819, 4.563819, 4.563819, 4.5921655, 4.5921655, 4.620512, 4.620512, 4.620512, 4.620512, 4.648859];[0.0, 0.0, 0.0, 0.0, 0.0, 0.0, 0.0, 0.0, 0.0, 0.0, 0.0, 0.0, 0.0, 0.0, 0.0, 0.0, 0.0, 0.0, 0.0, 0.0, 0.0, 0.0, 0.0, 0.0, 0.0, 0.0, 0.0, 0.0, 0.0, 0.0, 0.0, 0.0, 0.0, 0.0, 0.0, 0.0, 0.0, 0.0, 0.0, 0.0, 0.0, 0.0, 0.0, 0.0, -0.39685383, -1.1622148, -1.5874153, -1.984269, -2.1543493, -2.3527763, -2.5512033, -2.6362433, -2.7212832, -2.8063235, -2.83467, -2.8913634, -2.9764037, -3.1181371, -3.316564, -3.3732576, -3.4016042, -3.4299507, -3.4582977, -3.4582977, -3.4582977, -3.4582977, -3.4866443, -3.4866443, -3.514991, -3.6000311, -3.6850712, -3.770111, -3.798458, -3.8551514, -3.8834982, -3.8834982, -3.911845, -3.911845, -3.9401915, -3.968538, -3.968538, -3.968538, -3.968538, -3.996885, -3.996885, -3.996885, -4.025232, -4.025232, -4.0535784, -4.081925, -4.081925, -4.081925, -4.081925, -4.110272, -4.110272, -4.110272, -4.110272, -4.110272];[0.005014700000174344, 0.017356099968310446, 0.03388299996731803, 0.05268329998943955, 0.06668029999127612, 0.08566979999886826, 0.10142879997147247, 0.11841189995175228, 0.1349095999612473, 0.15220059995772317, 0.16722859995206818, 0.18480429996270686, 0.1995123999658972, 0.2168375999899581, 0.23387329996330664, 0.25187369994819164, 0.2671533999964595, 0.2855246999533847, 0.3004924999549985, 0.31918059999588877, 0.3341710999957286, 0.3523509999504313, 0.3675605999887921, 0.3850102999713272, 0.40157649997854605, 0.4185497999424115, 0.4346561999991536, 0.4523385999491438, 0.467298099945765, 0.48565079999389127, 0.5021437999675982, 0.518973299942445, 0.5348415999906138, 0.5517933999653906, 0.5675320999580435, 0.5859661999857053, 0.6004576999694109, 0.6193809999967925, 0.6351795999798924, 0.6514197999495082, 0.6670430999947712, 0.6842996999621391, 0.6993280999595299, 0.7173599999514408, 0.732762899948284, 0.7497389999916777, 0.7667496999492869, 0.7843200999777764, 0.8000691999914125, 0.8175470999558456, 0.8332620000001043, 0.8508215999463573, 0.8668735999963246, 0.8836000999435782, 0.9009660999872722, 0.9167887999792583, 0.9341054999968037, 0.9497446999885142, 0.9682875999715179, 0.9856939999735914, 0.9996686999802478, 1.0180540999863297, 1.0347363999462686, 1.0506264999858104, 1.0673852999461815, 1.0841907999711111, 1.0997234999667853, 1.1175953999627382, 1.133529599988833, 1.1508312999503687, 1.1668530999450013, 1.1854029999813065, 1.199711799970828, 1.2181151999975555, 1.234045999997761, 1.251393599959556, 1.2671237999456935, 1.2851607999764383, 1.3010549999889918, 1.3172187999589369, 1.3340019999886863, 1.3513181999442168, 1.3671090999851003, 1.3851855999673717, 1.4003845999832265, 1.4185061999596655, 1.4342501999926753, 1.4512745999963954, 1.4676241999841295, 1.486252999980934, 1.4993445999571122, 1.5176578999962658, 1.533040699956473, 1.5517049999907613, 1.5674234999460168, 1.5849437999422662, 1.6010706999804825, 1.618230499967467]
S03;19;0;0;1;False;3000;True;;8;-161.19109848230985;drag;L;-5.8394203;-3.0897903;-152.12;6.61;1.5318503999733366;1.5321089000208303;1685460335.1687505;1685460335.1854076;1685460335.9393282;1685460336.4406426;1685460339.4392242;1685460340.971907;[0.0, 0.0283467, 0.0566934, 0.0566934, 0.0566934, 0.0566934, 0.0566934, 0.0566934, 0.0566934, 0.0566934, 0.0850401, 0.0850401, 0.0850401, 0.0850401, 0.0850401, 0.0850401, 0.0850401, 0.0850401, 0.0850401, 0.0850401, 0.0850401, 0.0850401, 0.0850401, 0.0850401, 0.0850401, 0.0850401, 0.0850401, 0.0850401, 0.0850401, 0.0850401, 0.0850401, 0.0850401, 0.0850401, -1.3039483, -2.4094696, -3.514991, -4.081925, -4.5354724, -5.0740595, -5.300833, -5.4425664, -5.6409936, -5.811074, -5.981154, -6.1228876, -6.1795807, -6.2362742, -6.264621, -6.264621, -6.292968, -6.292968, -6.292968, -6.292968, -6.292968, -6.292968, -6.292968, -6.292968, -6.292968, -6.292968, -6.292968, -6.292968, -6.292968, -6.292968, -6.292968, -6.292968, -6.292968, -6.2362742, -6.2079277, -6.1228876, -6.037847, -5.924461, -5.924461, -5.8677673, -5.8677673, -5.8394203, -5.8394203, -5.8394203, -5.8394203, -5.8394203, -5.8394203, -5.8394203, -5.8394203, -5.8394203, -5.8394203, -5.8394203, -5.8394203, -5.8394203, -5.8394203, -5.8394203, -5.8394203, -5.8394203, -5.8394203];[0.0, 0.0, 0.0, 0.0, 0.0, 0.0, 0.0, 0.0, 0.0, 0.0, 0.0, 0.0, 0.0, 0.0, 0.0, 0.0, 0.0, 0.0, 0.0, 0.0, 0.0, 0.0, 0.0, 0.0, 0.0, 0.0, 0.0, 0.0, 0.0, 0.0, 0.0, 0.0, 0.0, -1.1905615, -2.0409625, -2.7779768, -3.1748307, -3.4299507, -3.6850712, -3.798458, -3.8551514, -3.968538, -3.996885, -4.081925, -4.081925, -4.110272, -4.1386185, -4.1386185, -4.1386185, -4.1386185, -4.1386185, -4.1386185, -4.1386185, -4.1386185, -4.1386185, -4.1386185, -4.1386185, -4.1386185, -4.1386185, -4.1386185, -4.1386185, -4.1386185, -4.1386185, -4.1386185, -4.1386185, -4.110272, -4.0535784, -3.968538, -3.770111, -3.6283777, -3.4866443, -3.4299507, -3.3732576, -3.3449106, -3.316564, -3.316564, -3.316564, -3.2882173, -3.2882173, -3.2882173, -3.2598708, -3.2598708, -3.2598708, -3.2315238, -3.2031772, -3.2031772, -3.1748307, -3.1748307, -3.146484, -3.146484, -3.1181371, -3.0897903];[0.0038719000294804573, 0.017398199997842312, 0.03636940004071221, 0.04998020001221448, 0.06783529999665916, 0.08460960001684725, 0.10091650002868846, 0.11749490001238883, 0.13467350002611056, 0.1506789000122808, 0.16872260003583506, 0.18359540001256391, 0.2006744000245817, 0.21756630000891164, 0.23391420004190877, 0.2514117000391707, 0.2683575000264682, 0.2847021000343375, 0.302280800009612, 0.31767379998927936, 0.3353283000178635, 0.3513956000097096, 0.36962900002254173, 0.3844919000403024, 0.4028620999888517, 0.4187730000121519, 0.4357973000151105, 0.45103739999467507, 0.46699480002280325, 0.48338950000470504, 0.5004530000151135, 0.5172636000206694, 0.5352427000179887, 0.5506705000298098, 0.5677073000115342, 0.5860964000457898, 0.5996581999934278, 0.6170500000007451, 0.6343203000142239, 0.6502309000352398, 0.6679366999887861, 0.6839776000124402, 0.7013341000420041, 0.7190755000337958, 0.7342674999963492, 0.7502752000000328, 0.767289100040216, 0.7838169999886304, 0.8001797000179067, 0.8170956000103615, 0.8342110000085086, 0.8512740000151098, 0.8686276000225917, 0.8838819999946281, 0.9013931000372395, 0.9168771000113338, 0.9341432999935932, 0.9506596000283025, 0.9685238000238314, 0.9841508000390604, 1.0009751000325195, 1.0166380000300705, 1.0348847000277601, 1.0507380000199191, 1.068792600010056, 1.08426309999777, 1.1012493000016548, 1.1176723000244237, 1.136085300007835, 1.1509676999994554, 1.168312399997376, 1.183990099991206, 1.200591600034386, 1.216763800010085, 1.2356406000326388, 1.2502966999891214, 1.26737920002779, 1.2843420000281185, 1.300577100017108, 1.3169666000176221, 1.3351317000342533, 1.3507786000263877, 1.3684497000067495, 1.3834206000319682, 1.401631599990651, 1.4175435000215657, 1.4337212000391446, 1.4500687000108883, 1.4682757999980822, 1.483570000040345, 1.5014075000071898, 1.5162325000273995]
