subj;trial;block;prior;kappa;ct;delay;fix;keypressed;R;T_Angle;resp_mod;choice_x;choice_y;init_resp_angle;choiceAngle;choiceR;RT;MT;ts_b;ts_f;ts_p;ts_d;ts_r;ts_e;m_pos_x;m_pos_y;m_clock
S04;0;0;0;1;False;3000;True;space;8;-132.90572583323683;eye;L;nan;nan;nan;nan;2.1478515000198968;2.1479365999693982;1685533685.737372;1685533685.7553902;1685533686.5108187;1685533687.0123742;1685533690.010698;1685533692.1584942;[0.20859414339065552, 0.32009270787239075, 0.12695080041885376, 0.12936356663703918, 0.02363729476928711, 0.0544658899307251, -0.05391550064086914, -0.022193938493728638, -0.09197390079498291, 0.19902971386909485, 0.08529788255691528, 0.11090514063835144, 0.15546119213104248, -0.06673809885978699, 0.10738253593444824, 0.17358610033988953, 0.204044371843338, 0.19422399997711182, 0.11710891127586365, 0.15996113419532776, -0.013979434967041016, -0.14986500144004822, 0.03475606441497803, -0.025520622730255127, 0.07684442400932312, -0.039398133754730225, 0.11335471272468567, -0.008361726999282837, -0.06781849265098572, 0.2287428081035614, 0.13980454206466675, -0.10551109910011292, 0.04869756102561951, -0.22560977935791016, -0.016825944185256958, -0.03865635395050049, -2.1919310092926025, -2.324254333972931, -2.351041078567505, -2.4284664690494537, -2.438400089740753, -2.4954791963100433, -2.427117109298706, -2.4211879670619965, -2.595245748758316, -2.62172332406044, -2.583542048931122, -2.577055722475052, -2.592873752117157, -2.7015354335308075, -2.45274418592453, -2.37320613861084, -2.5581046640872955, -2.5911982357501984, -2.6329898834228516, -2.5510662496089935, -2.6448736488819122, -2.583996742963791, -2.4476360976696014, -2.4540963768959045, -2.632579356431961, -2.5825426280498505, -2.685455232858658, -2.733801156282425, -2.638419598340988, -2.650852620601654, -2.653338998556137, -2.545732796192169, -2.9077813625335693, -3.0404200851917267, -4.566373258829117, -5.592891752719879, -5.304185390472412, -5.085009843111038, -5.114853739738464, -5.135853469371796, -5.07410454750061, -5.126639544963837, -5.19126895070076, -5.159006059169769, -5.2153507471084595, -5.153310775756836, -5.15532773733139, -5.193533927202225, -5.172296941280365, -5.273748070001602, -5.425427317619324, -5.378373563289642, -5.251929551362991, -5.289038926362991, -5.2179067730903625, -5.261637806892395, -5.29593351483345, -5.316709011793137, -5.262190461158752, -5.070803910493851, -5.286535561084747, -5.326378762722015, -5.323770642280579, -5.261547207832336, -5.237492024898529, -5.318233340978622, -5.3732496201992035, -5.352227807044983, -5.232441693544388, -5.248532652854919, -5.168870598077774, -5.332450032234192, -5.137122988700867, -5.25570073723793, -5.248359948396683, -5.277076452970505, -5.231160283088684, -5.261891484260559, -5.181266248226166, -5.36513364315033, -5.304328083992004, -5.29464191198349, -5.273499488830566, -5.188990950584412, -5.226496130228043, -5.219787269830704, -5.1697386503219604, -5.236737787723541, -5.122310042381287, -5.3222180008888245, -5.203918278217316, -5.11741429567337, -5.273741275072098];[0.6909170530736446, 0.6580203831195831, 0.5363212041556835, 0.5224875904619694, 0.6440688997507095, 0.5021125249564647, 0.4518373265862465, 0.4206113174557686, 0.4323699206113815, 0.4132183045148849, 0.41518553048372264, 0.4732331939041614, 0.4592687889933586, 0.39708024412393567, 0.4738783255219459, 0.5537063509225845, 0.4313283182680607, 0.5983663514256476, 0.48034697547554966, 0.4609593048691749, 0.4650163538753986, 0.49696218743920323, 0.4519362866878509, 0.3397092282772064, 0.523993107676506, 0.5144374698400497, 0.4018574327230453, 0.549160174280405, 0.3120892748236656, 0.2537753015756607, 0.29272996857762335, 0.3521772556006908, 0.24139804020524022, 0.3006344854831695, 0.2846243798732757, 0.24749511703848837, -3.994319017231464, -5.911653967201709, -5.54200647175312, -5.790565252304077, -5.693732477724552, -5.723982122540473, -5.7918095022439955, -5.8769574210047715, -5.823587040603161, -5.824129745364189, -5.839972186088562, -5.818398883938789, -5.7776348859071724, -5.853797605633735, -5.828083106875419, -6.01567742228508, -5.78932856619358, -5.967337618768215, -6.103574793040752, -6.027289791405201, -5.908105270564556, -5.980840945243835, -5.917626871168613, -6.051614436507225, -5.938131782412529, -6.0272752940654755, -6.040307772159576, -5.936103415489196, -5.950141882896423, -6.104884596168994, -6.141008815169334, -6.074194358289241, -6.068725079298019, -6.16505107730627, -6.06357789337635, -6.334419085085392, -6.366987673938274, -6.159512463212013, -6.17843275219202, -6.223569273948669, -6.108973476290703, -6.1548972666263575, -6.107444322109222, -6.257931751012801, -6.096387264132499, -6.098775543272495, -6.157963769137859, -6.192750450968742, -6.18748287409544, -6.205169628560543, -6.181086395680904, -6.155369375646114, -6.123947337269783, -6.107870417833328, -6.191307650506496, -6.322280399501324, -6.285776728391647, -6.266052782535553, -6.310571591556072, -6.318944120407104, -6.369572612643242, -6.300315669178962, -6.295039267838001, -6.131055445969104, -6.197194831073284, -6.178831113874912, -6.248864610493182, -6.345017270743846, -6.332126614451408, -6.336753156781196, -6.373585224151611, -6.389072795212268, -6.298429124057293, -6.237083315849304, -6.377264396846294, -6.381456649303436, -6.431067176163197, -6.3821670189499855, -6.437173707783222, -6.3703813120722765, -6.399507728219032, -6.367030535638332, -6.380104614794254, -6.444385819137096, -6.354153116047382, -6.250006748735904, -6.231581890583038, -6.354852139949799, -6.268359750509262, -6.377969093620777, -6.310342155396938, -6.453222262859344, -6.240607430040836];[0.006468300009146333, 0.016911500017158687, 0.037109099968802184, 0.05122399999527261, 0.06865440000547096, 0.08430749998660758, 0.10401750000892207, 0.11860370001522824, 0.1353444000124, 0.15314730000682175, 0.1713216999778524, 0.18662749999202788, 0.2023666999884881, 0.2186578999971971, 0.23502789996564388, 0.2516743000014685, 0.26818919996730983, 0.2845216999994591, 0.3030323999701068, 0.3176264999783598, 0.3357980999862775, 0.3519611000083387, 0.3712396000046283, 0.3850764000089839, 0.4015051999595016, 0.418532999989111, 0.4360875000129454, 0.45170360000338405, 0.4683364999946207, 0.4841358999838121, 0.5011052999761887, 0.5185943999676965, 0.5369510999880731, 0.5525714000104927, 0.5708492000121623, 0.5858193999738432, 0.6043455000035465, 0.6194837999646552, 0.6365464999689721, 0.6534553999663331, 0.6690916999941692, 0.6856511000078171, 0.7014911000151187, 0.7178093999973498, 0.7355252999695949, 0.7534473999985494, 0.771092300012242, 0.785921500006225, 0.8028030999703333, 0.8183099000016227, 0.8369952999637462, 0.8523101999890059, 0.8689936000155285, 0.885963200009428, 0.9027539999806322, 0.9177586999721825, 0.9357192000024952, 0.9509245000081137, 0.9708867999725044, 0.9853751999908127, 1.0019249999895692, 1.0196084000053816, 1.036464500008151, 1.0524340000119992, 1.0707662999629974, 1.086223299964331, 1.1015746999764815, 1.118241099989973, 1.135118899983354, 1.1497608000063337, 1.1688301999820396, 1.185058199975174, 1.202608199964743, 1.2180652999668382, 1.2373352000140585, 1.252619099977892, 1.2705864000017755, 1.2853114000172354, 1.3050346999661997, 1.3201118999859318, 1.3368316999985836, 1.3515909999841824, 1.3671055000158958, 1.383416099997703, 1.4019567999639548, 1.418000600009691, 1.4353191999834962, 1.450849200016819, 1.4691354999667965, 1.4854918000055477, 1.5014255999703892, 1.5177805999992415, 1.5365781000000425, 1.5527134999865666, 1.5685740999761038, 1.5855055999709293, 1.6022606999613345, 1.6177576999762096, 1.6374922000104561, 1.6530544999986887, 1.6693672999972478, 1.6851612000027671, 1.7047067999956198, 1.7184866999741644, 1.7356767000164837, 1.752414399990812, 1.7683183999615721, 1.784148600010667, 1.8024182000081055, 1.8185953999636695, 1.836964599962812, 1.8523484999896027, 1.869139299960807, 1.8861953999730758, 1.904793299967423, 1.9179690000019036, 1.934126499982085, 1.9506165999919176, 1.9675971000106074, 1.9842014000169002, 2.0022493000142276, 2.018139199994039, 2.035447700007353, 2.0522636999958195, 2.0681725000031292, 2.083641799981706, 2.1015090000000782, 2.1179731999873184, 2.135569099977147]
S04;1;0;0;1;False;1000;False;;8;98.9489104157574;eye;L;nan;nan;nan;nan;0.0027702999650500715;0.002882000000681728;1685533692.92767;1685533692.9392498;1685533693.6935499;1685533694.1946292;1685533695.160551;1685533695.1627235;[];[];[]
S04;1;0;0;1;False;1000;False;;8;-150.01776288319698;eye;L;nan;nan;nan;nan;0.0023114000214263797;0.0023850000579841435;1685533695.7296584;1685533695.7380755;1685533696.4929607;1685533696.976838;1685533696.977836;1685533696.9800155;[];[];[]
S04;1;0;0;1;False;1000;True;;8;-108.3308925525004;eye;L;-1.8511137664318085;-6.873524093627929;-105.07;7.12;1.4490688999649137;1.4491842999705113;1685533697.5372357;1685533697.5552065;1685533698.3100295;1685533698.81084;1685533699.7915666;1685533701.2410312;[-0.07099568843841553, -0.09024006128311157, 0.029058516025543213, -0.14733615517616272, -0.029926002025604248, -0.13670435547828674, 0.0029246509075164795, -0.032779306173324585, -0.04929494857788086, -0.05820649862289429, 0.01780158281326294, -0.12953004240989685, -0.1715538501739502, 0.039236754179000854, -0.06775903701782227, -0.05196535587310791, -0.1448797881603241, 0.06583946943283081, -0.12848475575447083, -0.1702480912208557, -0.1401556134223938, -0.009342461824417114, -0.008285850286483765, -0.08324354887008667, -0.0037134289741516113, -0.055972665548324585, 0.14817023277282715, 0.1277729868888855, 0.05943751335144043, 0.04892292618751526, 0.085895836353302, 0.2304387092590332, 0.2233719825744629, 0.12366771697998047, 0.2726691961288452, 0.0554177463054657, 0.3248055577278137, 0.24962985515594482, 0.05062901973724365, 0.15785753726959229, 0.15796512365341187, 0.1654270887374878, 0.17774629592895508, -0.2280406653881073, -1.7013948559761047, -1.575592964887619, -1.7880783379077911, -1.7350065410137177, -1.6488660871982574, -1.7872482240200043, -1.7528437972068787, -1.9166259467601776, -1.8562756478786469, -1.7887623608112335, -1.9198076725006104, -1.9127426445484161, -1.8779984712600708, -1.9464018940925598, -1.960816204547882, -2.0483394265174866, -1.8683711886405945, -2.02084544301033, -2.1297138035297394, -2.079403579235077, -2.064621776342392, -1.9389886260032654, -1.9578785300254822, -2.0399063527584076, -1.9368289709091187, -2.0264155864715576, -1.9637193381786346, -1.978065699338913, -2.015322297811508, -2.051145166158676, -2.0159672498703003, -1.9053786396980286, -1.975174456834793, -1.7862958014011383, -1.9810503721237183, -1.869998574256897, -1.8041206002235413, -1.7856423556804657, -1.8703530430793762, -1.9278358817100525, -1.8741219639778137, -1.855447232723236, -1.8511137664318085];[0.18536582216620445, 0.2706977941095829, 0.387250417470932, 0.49425748810172077, 0.3872056648135185, 0.3859781183302402, 0.446671861410141, 0.37067712172865863, 0.293708223849535, 0.20182786658406257, 0.2931979805231094, 0.25864294096827506, 0.22626061141490936, 0.279506503790617, 0.2049413278698921, 0.3189707837998867, 0.3198960922658443, 0.24052000567317008, 0.13747575134038925, 0.16365069821476935, 0.20190980806946754, 0.08293455317616462, 0.14689744636416435, 0.25800096094608305, 0.1211860992014408, 0.21294732615351675, 0.36663835197687145, 0.3795936159789562, 0.3093316286802292, 0.4381590865552425, 0.3350631460547447, 0.39563807398080825, 0.33428816869854927, 0.3326840065419674, 0.35746973007917404, 0.4419072791934013, 0.22721617519855497, 0.2387674033641815, 0.2911280125379562, 0.27359316498041153, 0.2881437666714191, 0.2285527668893337, 0.15296300724148748, -1.063413906097412, -6.577361091971397, -5.973696908354759, -6.725007042288779, -6.723081417381763, -6.765267415344715, -6.7512800037860865, -6.792620113492012, -6.776030114293098, -6.741956323385238, -6.792252007126808, -6.893311701714992, -6.845584568381309, -6.766294835507869, -6.821983529627323, -6.851744046807289, -6.833943834900856, -6.833974090218543, -6.834047837555408, -6.855983573198318, -6.795416209101677, -6.823988574743271, -6.81405663639307, -6.817928686738013, -6.9167784824967375, -6.922548423707485, -6.957520419359207, -6.915302275121212, -6.781271217763424, -6.8357244864106175, -6.877827282249927, -6.8244279071688645, -6.894989611208438, -6.879974149167537, -6.752238088846206, -6.844618919491768, -6.739339868724346, -6.8592498868703835, -6.873534809052944, -6.872244545817375, -6.742604921758175, -6.9128112539649, -6.872619585692882, -6.873524093627929];[0.005997899977955967, 0.021073199983220547, 0.036783199990168214, 0.05497230001492426, 0.07084220001706854, 0.08728829998290166, 0.10322499996982515, 0.12063239997951314, 0.13603599998168647, 0.154601400019601, 0.17096929997205734, 0.18876069999532774, 0.20208109996747226, 0.2202001999830827, 0.23722469998756424, 0.25302970001939684, 0.26910099998349324, 0.28713100001914427, 0.3025750999804586, 0.31980270001804456, 0.3357304999954067, 0.35493859997950494, 0.36931550002191216, 0.38574990001507103, 0.40107029996579513, 0.4201833999832161, 0.43645410001045093, 0.45612320001237094, 0.4707283999887295, 0.488231299968902, 0.502636999997776, 0.5200743000023067, 0.5360612999647856, 0.5546622999827377, 0.5695635000010952, 0.5878897999646142, 0.6019363999948837, 0.6199906999827363, 0.6351959999883547, 0.654537900001742, 0.6709435000084341, 0.68779659998836, 0.7023711000219919, 0.7213331999955699, 0.7351311999955215, 0.7544918999774382, 0.7695962999714538, 0.7869938999647275, 0.8022943999967538, 0.8190924999653362, 0.8345432999776676, 0.8529633000143804, 0.8703736999887042, 0.8855540999793448, 0.9018115000217222, 0.9208670000080019, 0.9363743999856524, 0.953576100000646, 0.9702258000033908, 0.9864974999800324, 1.0019817000138573, 1.019753500004299, 1.035637199995108, 1.0529117999831215, 1.0689836000092328, 1.088676100014709, 1.1038951000082307, 1.1199202999705449, 1.1352605000138283, 1.1542018000036478, 1.1688710000016727, 1.1875707000144757, 1.2027217000140809, 1.2196097999694757, 1.2356208999990486, 1.2535745999775827, 1.2694694999954663, 1.2868577999761328, 1.3025677999830805, 1.3193600999657065, 1.3364616999751888, 1.353033899969887, 1.3691624000202864, 1.3866627999814227, 1.4021752999979071, 1.4188616999890655, 1.435497700003907]
S04;2;0;0;1;False;1000;True;;8;33.00980991287183;eye;L;5.987905919551849;4.132673748582601;34.61;7.28;1.3482241000165232;1.3483407000312582;1685533702.232848;1685533702.2368534;1685533702.993153;1685533703.493979;1685533704.47499;1685533705.8233364;[-0.009262621402740479, 0.08101141452789307, 0.08861154317855835, 0.06034407019615173, -0.039938896894454956, -0.03587779402732849, 0.02446061372756958, 0.0385606586933136, -0.037359654903411865, -0.006643742322921753, 0.12986299395561218, -0.08299440145492554, -0.14783841371536255, -0.01339733600616455, -0.17486751079559326, -0.046507328748703, -0.12593382596969604, 0.013172537088394165, -0.01922115683555603, 0.058306723833084106, 0.014950543642044067, -0.02852681279182434, -0.01266065239906311, 0.028379589319229126, 0.09425133466720581, 0.09299257397651672, -0.14090588688850403, 0.1085563600063324, 0.008827179670333862, 3.4152414202690125, 5.671505689620972, 5.527761220932007, 5.924446940422058, 5.806498289108276, 5.714645564556122, 5.7743401527404785, 5.695831537246704, 5.651596546173096, 5.75204598903656, 5.7262603640556335, 5.826162815093994, 5.800558388233185, 5.874036490917206, 5.854160189628601, 5.646824240684509, 5.73687744140625, 5.805211782455444, 5.675553202629089, 5.536123514175415, 5.73779022693634, 5.614709138870239, 5.715564012527466, 5.696495175361633, 5.65865421295166, 5.661987125873566, 5.702285587787628, 5.75079345703125, 5.699260711669922, 5.652402877807617, 5.81330680847168, 5.656941890716553, 5.791491687297821, 5.814511775970459, 5.830426633358002, 5.727802813053131, 5.716911673545837, 5.840946316719055, 5.856516897678375, 5.73183673620224, 5.900162994861603, 5.649777770042419, 5.864196300506592, 5.710260570049286, 5.918497979640961, 5.8605281710624695, 5.946040093898773, 5.889764487743378, 5.821940898895264, 5.874791860580444, 5.980019271373749, 5.987905919551849];[0.6803834751248359, 0.6373755410313606, 0.6800963647663593, 0.5985182583332062, 0.5441311731934547, 0.5820848934352397, 0.6001447968184948, 0.6159960620105266, 0.5788989454507827, 0.5105184607207774, 0.5712326891720294, 0.41739133223891256, 0.39402067512273786, 0.34671081304550166, 0.5520782366394996, 0.46653195619583127, 0.3905211433768272, 0.41715055033564563, 0.4390676915645599, 0.5412005044519901, 0.4275794953107834, 0.4080916039645672, 0.40215651914477346, 0.4425732113420963, 0.4096113033592701, 0.40688422769308086, 0.44912033602595325, 0.3701838970184326, 0.30848227366805075, 2.155606922507286, 3.8644055195152758, 4.225424891710281, 4.095635251700878, 4.076083382964134, 4.084108290821313, 4.103600909560918, 4.142719459533691, 4.12803586050868, 4.096664877980947, 4.138940381258726, 4.152565674483776, 4.142704016715288, 4.1084647670388215, 4.14803052842617, 4.246624099463224, 4.195152870565653, 4.170314515382051, 4.097525263577699, 4.228039455413818, 4.092909436672926, 4.2079256571829315, 4.212884692847728, 4.2380473472177975, 4.218884700536727, 4.247492994368076, 4.230411031097173, 4.137880499660969, 3.9923470638692375, 4.092888951301575, 4.347181114554405, 4.264162413775921, 4.20325436219573, 4.1814970068633555, 4.257061238586902, 4.190063674002886, 4.162723267078399, 4.082813930511474, 4.209843087941408, 4.161772745847702, 4.22107663527131, 4.183219669014215, 4.228613045811652, 4.243329736590385, 4.232153548300266, 4.119569098949432, 4.296626369655132, 4.224031571298838, 4.195442187041044, 4.02573916465044, 4.246293181926012, 4.132673748582601];[0.00656950002303347, 0.01913949998561293, 0.036428800027351826, 0.053313400014303625, 0.06784630002221093, 0.08562359999632463, 0.1018288999912329, 0.1184404999949038, 0.13475219998508692, 0.15348229999653995, 0.16878880001604557, 0.18702509999275208, 0.2012467000167817, 0.219333800021559, 0.23666029999731109, 0.253279399999883, 0.26855819998309016, 0.285871300031431, 0.30066300003090873, 0.3184297999832779, 0.335495000006631, 0.35287960001733154, 0.36946730001363903, 0.3865206000045873, 0.4028138000285253, 0.42079699999885634, 0.4364353999844752, 0.45424170000478625, 0.47115960001247004, 0.4869920000201091, 0.501710299984552, 0.5196163000073284, 0.5350763000315055, 0.5548333000042476, 0.5702392000239342, 0.5886640999815427, 0.6021512000006624, 0.6191995000117458, 0.6351179000339471, 0.6525312000303529, 0.6691977999871597, 0.6865584999904968, 0.702036400034558, 0.7194165000109933, 0.7356697000213899, 0.754574800026603, 0.770007400016766, 0.7871261999825947, 0.8030744999996386, 0.819212400005199, 0.8369768999982625, 0.853929299977608, 0.8702419000328518, 0.8891953999991529, 0.9032197999767959, 0.9212535999831744, 0.936829200014472, 0.9537971999961883, 0.968968000030145, 0.9849030000041239, 1.001451599993743, 1.0187908000079915, 1.0353667000308633, 1.053534500009846, 1.0695092999958433, 1.0853383999783546, 1.102312000002712, 1.1188906999886967, 1.1340990000171587, 1.152253300009761, 1.1682586999959312, 1.1835799000109546, 1.2013452000101097, 1.220691499998793, 1.2355410000309348, 1.2521438000258058, 1.2684697000076994, 1.2857240000157617, 1.30143059999682, 1.3200530000030994, 1.335462599992752]
S04;3;0;0;1;False;3000;False;;8;138.89089980148754;eye;L;nan;nan;nan;nan;0.0017034999909810722;0.0017946999869309366;1685533706.660859;1685533706.670843;1685533707.4275537;1685533707.910405;1685533707.911049;1685533707.913076;[];[];[]
S04;3;0;0;1;False;3000;True;;8;-102.5479825479428;eye;L;-2.466185688972473;-6.831033651530742;-109.85;7.26;2.4335476999985985;2.433650300023146;1685533708.4793582;1685533708.487333;1685533709.243639;1685533709.7442338;1685533712.7428691;1685533715.1765177;[0.1482715904712677, 0.21767613291740417, 0.3111885190010071, 0.2252621054649353, 0.13339295983314514, 0.036988765001297, 0.18367883563041687, 0.15025854110717773, 0.11478447914123535, 0.2249302864074707, 0.21546947956085205, 0.14543697237968445, 0.09258997440338135, 0.2246607542037964, 0.04718908667564392, 0.11077207326889038, 0.12486419081687927, 0.0579800009727478, 0.11279582977294922, 0.40833789110183716, 0.06157734990119934, 0.15435248613357544, 0.2014385163784027, 0.07121086120605469, 0.17229393124580383, 0.15005242824554443, 0.07834497094154358, 0.009983450174331665, 0.08639469742774963, 0.11376410722732544, 0.02400931715965271, 0.010031014680862427, 0.05937749147415161, 0.08235058188438416, -0.015429019927978516, -0.06309545040130615, -0.045287638902664185, 0.03217002749443054, -0.6739839613437653, -0.6330801844596863, -0.6950057744979858, -1.0740433633327484, -0.9830337762832642, -0.8722871840000153, -1.010129690170288, -0.938395619392395, -1.07423135638237, -0.8195709884166718, -1.0250326693058014, -0.8665058314800262, -0.8360837996006012, -0.8791749775409698, -1.1507983207702637, -0.8467778861522675, -0.9293090999126434, -0.8202442526817322, -1.065413236618042, -0.8782729506492615, -0.9888366460800171, -0.9901356101036072, -1.007383406162262, -1.0643050968647003, -0.9313056766986847, -1.033590316772461, -1.0036490261554718, -0.9782643020153046, -1.0435165762901306, -0.8366421163082123, -1.0657388269901276, -1.0709397792816162, -1.1207879483699799, -1.950130045413971, -2.1600537300109863, -2.210147649049759, -2.261836677789688, -2.356196165084839, -2.1760495603084564, -2.3272854387760162, -2.263363838195801, -2.2190501391887665, -2.2920656204223633, -2.300389975309372, -2.362874448299408, -2.294277936220169, -2.3573212921619415, -2.43418949842453, -2.394987851381302, -2.40567684173584, -2.4511117041110992, -2.359001338481903, -2.372391313314438, -2.442016690969467, -2.415025532245636, -2.423356682062149, -2.482502579689026, -2.5198282599449158, -2.354426085948944, -2.4679988026618958, -2.353427231311798, -2.504156321287155, -2.5292432010173798, -2.421682298183441, -2.4949741065502167, -2.264098823070526, -2.337556540966034, -2.5318207442760468, -2.4459662437438965, -2.5790562629699707, -2.4200702011585236, -2.4122373461723328, -2.630330801010132, -2.4483178555965424, -2.3864432275295258, -2.550516426563263, -2.4255774915218353, -2.427452325820923, -2.288913905620575, -2.4023133516311646, -2.39225572347641, -2.410931020975113, -2.376419574022293, -2.3511860370635986, -2.406451463699341, -2.5156482458114624, -2.4444787204265594, -2.3402025997638702, -2.532820165157318, -2.5497933328151703, -2.463372588157654, -2.443963438272476, -2.4062487483024597, -2.5062593519687653, -2.479750633239746, -2.413997232913971, -2.259552448987961, -2.355916440486908, -2.363073766231537, -2.3135325014591217, -2.459592342376709, -2.400662750005722, -2.3860932886600494, -2.3363436460494995, -2.584083378314972, -2.341045171022415, -2.43840292096138, -2.466185688972473];[0.4500090859830379, 0.481454761326313, 0.47486855685710905, 0.5294040821492672, 0.5082795672118663, 0.48560509756207465, 0.4525067254900932, 0.4793397255241871, 0.44448244795203207, 0.34209687709808345, 0.4437144041061401, 0.46685341894626614, 0.4590711839497089, 0.37727309614419935, 0.3617644093930721, 0.47672894373536107, 0.3857713736593723, 0.32859512642025945, 0.3884518057107925, 0.27529754787683486, 0.26127420812845226, 0.309641745686531, 0.3169121615588665, 0.3858258962631225, 0.2967904843389988, 0.3391444623470306, 0.23612825721502304, 0.14910734519362448, 0.22461295723915098, 0.2472458258271217, 0.22516228035092353, 0.43394288197159764, 0.3197006933391094, 0.29859760925173756, 0.1745879955589771, 0.29460863471031185, 0.16289935782551765, 0.07516618520021438, -2.3052667424082753, -7.233853581547737, -6.828661130368709, -7.511777038872242, -7.3527872353792185, -7.2666654735803595, -7.273102922737598, -7.324061071872711, -7.22227714061737, -7.266342750191688, -7.360467673838138, -7.299255493283272, -7.264083056151867, -7.372569800913333, -7.473133434355258, -7.392742533981799, -7.324931542575359, -7.371670335531234, -7.347674717009067, -7.32308659851551, -7.410301333665847, -7.356159442663192, -7.32613671272993, -7.361880849301815, -7.349653288722037, -7.413178740441799, -7.459962286055087, -7.307208859920501, -7.387067770957946, -7.425658428668975, -7.454217557609081, -7.400862935185432, -7.4174831897020335, -6.84948309212923, -6.314464442431927, -6.559511084854602, -6.453015518188476, -6.584755995869636, -6.638096751272678, -6.587865360081196, -6.501308678090572, -6.60892117023468, -6.562051270902156, -6.645765843987465, -6.49301178753376, -6.618186230957508, -6.559603741765022, -6.55453345477581, -6.548241609334945, -6.596746556460857, -6.520419953763485, -6.6283293262124054, -6.49442748427391, -6.555059140920639, -6.427282740175723, -6.499881635606289, -6.522174131870269, -6.4928768992424, -6.584713134169578, -6.512215089797973, -6.576499445736408, -6.536938096582889, -6.514516384899616, -6.6528329819440835, -6.589137974381447, -6.69965938925743, -6.712068481743335, -6.689260384440422, -6.712036335468292, -6.704994410276412, -6.695813181996345, -6.736377999186515, -6.665675103664397, -6.737167158722877, -6.582135128974914, -6.693694049119949, -6.748198373615741, -6.673175270855427, -6.768491497635841, -6.776007422804832, -6.6476410433650015, -6.699384570121764, -6.866050399839877, -6.641968171298504, -6.734899270534515, -6.685714209079742, -6.67740471214056, -6.6392710357904425, -6.630947671830653, -6.752284102141856, -6.645085099339485, -6.719964489340781, -6.691880621016025, -6.740062844753265, -6.706814141571521, -6.7663994684815405, -6.7365172997117035, -6.752311836183071, -6.816685697436332, -6.7749818935990325, -6.76841648966074, -6.685937342047691, -6.739045509696006, -6.800500363111495, -6.823096042871475, -6.7492207512259474, -6.905184392631053, -6.831033651530742];[0.005286800034809858, 0.0181260000099428, 0.035313400032464415, 0.05207700002938509, 0.07023529999423772, 0.08619030000409111, 0.10225370002444834, 0.11922719998983666, 0.13563520001480356, 0.15301340003497899, 0.16865529998904094, 0.18314590002410114, 0.20090460003120825, 0.21738640003604814, 0.23715820000506938, 0.2542776000336744, 0.2723245000233874, 0.2873814000049606, 0.30514880002010614, 0.32173200004035607, 0.3386620000237599, 0.34826220001559705, 0.36943100002827123, 0.3825048000435345, 0.4030072999885306, 0.4196335000451654, 0.43496460001915693, 0.4507651000167243, 0.4691892000264488, 0.4852610999951139, 0.5026255000266246, 0.5192902000271715, 0.5363416000036523, 0.55228740000166, 0.56941250001546, 0.5847534000058658, 0.6018756999983452, 0.6182236000313424, 0.6353638000437059, 0.6501434000092559, 0.6679553000140004, 0.6853573000407778, 0.7031139000318944, 0.7180007999995723, 0.7364243000047281, 0.7519335999968462, 0.7710513999918476, 0.7844542000093497, 0.8025780000025406, 0.8174298999947496, 0.8349704000283964, 0.8509885999956168, 0.8679136999999173, 0.8836431000381708, 0.9026631000451744, 0.9185491999960504, 0.9378118000458926, 0.9503687000251375, 0.968949000001885, 0.9854819999891333, 1.0031437000143342, 1.0178569999989122, 1.0376904000295326, 1.0518091000267304, 1.0694564000004902, 1.0854017999954522, 1.1029637000174262, 1.1182018000399694, 1.1356724000070244, 1.1515939999953844, 1.170422499999404, 1.1847595000290312, 1.2035973999882117, 1.2181252000154927, 1.2359673000173643, 1.250748399994336, 1.2680550999939442, 1.2843817000393756, 1.3021780000417493, 1.3178725999896415, 1.335607799992431, 1.3506989000015892, 1.3678317000158131, 1.3856260000029579, 1.4024489000439644, 1.4172514000092633, 1.4365016000228934, 1.4515029999893159, 1.4688047000090592, 1.4846844000276178, 1.5026647000340745, 1.5177637000451796, 1.5365974000305869, 1.553584600042086, 1.5693556999904104, 1.5848085000179708, 1.6029208000400104, 1.6183655000058934, 1.635842900024727, 1.650095799996052, 1.6677903000381775, 1.6838951000245288, 1.701831599988509, 1.7172020000289194, 1.7345402000355534, 1.7518012000364251, 1.7685622000135481, 1.7856354000396095, 1.801891200011596, 1.8180003000306897, 1.8345991999958642, 1.8507569000357762, 1.8692788000334986, 1.8860726000275463, 1.9013673000154085, 1.9186099999933504, 1.9366618000203744, 1.9508377999882214, 1.9679168000002392, 1.9833410000428557, 2.0037455999990925, 2.017846900038421, 2.0364008999895304, 2.0523905000300147, 2.0690041999914683, 2.0842586000217125, 2.1020774000207894, 2.1179869000334293, 2.134529000031762, 2.1512199999997392, 2.168061400006991, 2.18500800000038, 2.2022829999914393, 2.217658700013999, 2.2334784000413492, 2.2493642999907024, 2.2684847000055015, 2.2849288000143133, 2.302748200017959, 2.3180058000143617, 2.3348821999970824, 2.351198000018485, 2.3674471999984235, 2.3832675000303425, 2.4022967999917455, 2.4172601000173017]
S04;4;0;0;1;False;1000;True;;8;119.07558784077439;eye;L;-3.221880942583084;6.685896213725209;115.73;7.42;2.1839500999776646;2.1840729999821633;1685533715.9140885;1685533715.9198449;1685533716.6761672;1685533717.1776402;1685533718.1589658;1685533720.3424973;[-0.33353421092033386, -0.28595781326293945, -0.3648327887058258, -0.19380101561546326, -0.3292030096054077, -0.2297971546649933, -0.3396773934364319, -0.09332609176635742, -0.38467681407928467, -0.2428983449935913, -0.29901427030563354, -0.26849937438964844, -0.22753670811653137, -0.30172544717788696, -0.33665648102760315, -0.3224482834339142, -0.37951549887657166, -0.32654958963394165, -0.33220919966697693, -0.38102850317955017, -0.4007304012775421, -0.35930341482162476, -0.30657362937927246, -0.31156110763549805, -0.2886531352996826, -0.24809929728507996, -0.17659568786621094, -0.2445908486843109, -0.23981061577796936, -0.31036633253097534, -2.141549438238144, -3.210203856229782, -3.126709461212158, -3.1909821331501007, -3.2224811613559723, -3.2144144475460052, -3.258258730173111, -3.1022907495498657, -3.310457944869995, -3.2871705889701843, -3.4119515419006348, -3.385872036218643, -3.3566255271434784, -3.334141105413437, -3.330674558877945, -3.410605013370514, -3.4280090928077698, -3.3933781683444977, -3.494789093732834, -3.5427261888980865, -3.4423067569732666, -3.3777843713760376, -3.356982260942459, -3.4637555181980133, -3.374000161886215, -3.2657201290130615, -3.3407151997089386, -3.3468549847602844, -3.281432271003723, -3.3863222002983093, -3.3858029544353485, -3.493520140647888, -3.310938686132431, -3.4699156880378723, -3.409983277320862, -3.4621802270412445, -3.4319637417793274, -3.43294957280159, -3.4990206360816956, -3.4500575065612793, -3.22750261425972, -3.2618962824344635, -3.2532695531845093, -3.1481032967567444, -3.2110685110092163, -3.212952971458435, -3.2679919004440308, -3.135726898908615, -3.285697788000107, -3.1298136115074158, -3.1622837483882904, -3.3229475915431976, -3.120703309774399, -3.20634263753891, -3.143782287836075, -3.107758402824402, -3.2134959995746613, -3.1619264483451843, -3.149229556322098, -3.1125137209892273, -3.0793720185756683, -3.1399437189102173, -3.2566698491573334, -3.141629993915558, -3.30375474691391, -3.1153619289398193, -3.0721280574798584, -3.074293375015259, -3.221756935119629, -3.2622484862804413, -3.166040778160095, -3.2043302059173584, -3.1144361197948456, -3.1042941212654114, -3.2225711941719055, -3.0636242032051086, -2.980224370956421, -2.9273649156093597, -3.116156369447708, -2.853928714990616, -3.1733300387859344, -3.2102197110652924, -2.9992705583572388, -3.071572005748749, -3.1663103103637695, -3.3054840564727783, -3.0623224079608917, -3.1004765033721924, -3.2293547987937927, -3.139173060655594, -3.2604076266288757, -3.155706822872162, -3.1091819405555725, -3.089375287294388, -3.2121573984622955, -3.1871871650218964, -3.0423249304294586, -3.035456955432892, -2.9458760023117065, -2.9289894700050354, -3.221880942583084];[0.6617625877261162, 0.6147634729743003, 0.8744205974042415, 0.7605748794972896, 0.6598495692014694, 0.7034698583185672, 0.749234177917242, 0.7995049640536308, 0.8295913562178611, 0.7857353277504444, 0.836444815993309, 0.6888890013098716, 0.7073368661105632, 0.5938003197312355, 0.7339870736002921, 0.6986239649355411, 0.7920542769134045, 0.8010010264813899, 0.7401799589395522, 0.8231668286025524, 0.7815213292837142, 0.79450558796525, 0.7207620330154896, 0.8290767006576061, 0.7205965742468834, 0.7452247180044651, 0.6936756446957588, 0.8073152482509612, 0.845307733118534, 0.8718851387500762, 4.480395593494176, 7.161369246616959, 6.733507525920867, 6.953902072459459, 7.151673993095755, 6.804441906139254, 6.862076395377517, 6.808567659929394, 7.367920961044728, 6.889017967879772, 7.129430819302796, 6.9188273347914215, 6.929351773113011, 6.904318334162235, 6.831065955385565, 7.151980328187346, 7.114987371861934, 7.17742646858096, 7.167652897909283, 6.999748491123318, 7.070452174544334, 7.541350036114454, 6.880285211652517, 7.386468573845923, 7.001166709139943, 7.135708797723054, 7.347228608652949, 6.943140634149312, 6.710953289642929, 7.033574724197387, 7.0845401220023625, 7.209594647213816, 6.786454962193965, 6.975853250920772, 6.7732990991324185, 7.182486985623836, 6.792107348889112, 6.748842244595289, 6.900222205370664, 6.867967515438795, 6.2787160512059925, 6.520145922526717, 6.442958619073033, 6.54432401843369, 6.742789132520556, 6.496463099867105, 6.596102685481309, 6.7399812184274195, 6.80459917075932, 6.59196007065475, 6.435257380083203, 6.981725303828716, 6.60560616441071, 6.819268114864825, 6.5043285369873045, 6.390248813107609, 6.742308199033141, 6.650439029932022, 7.0923182599246495, 6.6934521641582245, 6.789907692745327, 6.567189789935946, 6.501358473300933, 6.548627837374806, 6.725672028958797, 6.5009859547019, 6.532473703846335, 6.396083677187562, 6.766300823539495, 6.997554192692041, 6.25562998317182, 6.642489760369062, 6.619540786743164, 6.6311191186308855, 6.831966996565461, 6.233452835306525, 6.604850254207849, 6.410966614633798, 6.674347349256276, 6.525298466160893, 6.6173116631805895, 6.490557482466102, 6.499563009291887, 6.348822664842009, 6.525648766010999, 6.565323415026068, 6.557349405437708, 6.604392327368259, 6.342262303456664, 6.315450576692819, 6.875234937295317, 6.787041946873068, 6.696978799626231, 6.544930543005466, 6.597243405506014, 6.678462072461843, 6.651635060459375, 6.606179912388324, 6.718811950832605, 6.844436914846301, 6.685896213725209];[0.006767900020349771, 0.01979120000032708, 0.03665909997653216, 0.05403689999366179, 0.06908099999418482, 0.08615430002100766, 0.10193840001011267, 0.12170179997337982, 0.13431519997539, 0.1534863999695517, 0.1692878999747336, 0.18662870000116527, 0.20049149997066706, 0.2197720999829471, 0.23530860000755638, 0.25266369996825233, 0.2686610000091605, 0.2863449999713339, 0.30106739996699616, 0.320953999995254, 0.33538730000145733, 0.35371389996726066, 0.36959209997439757, 0.3859651999664493, 0.4029924999922514, 0.4204405000200495, 0.43584829999599606, 0.45312059996649623, 0.46950539998942986, 0.48636149999219924, 0.5014415999758057, 0.5192783999955282, 0.5343074999982491, 0.5528112999745645, 0.5686280999798328, 0.587159899994731, 0.6010135000105947, 0.6209499000106007, 0.6351769000175409, 0.6536173999775201, 0.6686826000222936, 0.6861673999810591, 0.7020192000200041, 0.7210305000189692, 0.735262000001967, 0.7528826000052504, 0.7688298000139184, 0.7880026000202633, 0.8021436000126414, 0.8186069999937899, 0.8350368000101298, 0.8535805999999866, 0.8689302999991924, 0.8866905000177212, 0.9024814000003971, 0.9191809999756515, 0.9349303999915719, 0.9533370999852195, 0.9703504000208341, 0.9874947000062093, 1.0025177000206895, 1.019973399990704, 1.0350536999758333, 1.0519921999657527, 1.070047200017143, 1.086268300015945, 1.1026487000053748, 1.1218112999922596, 1.1353102999855764, 1.1542273999657482, 1.169762899982743, 1.186796800000593, 1.2026225000154227, 1.219523300009314, 1.2348510000156239, 1.253701000008732, 1.2677222000202164, 1.2871499999891967, 1.3034935999894515, 1.3203365000081249, 1.335194399987813, 1.3546821000054479, 1.3697638000012375, 1.3872701000072993, 1.4032462000031956, 1.4208067000145093, 1.4352648999774829, 1.4535472000134178, 1.4690716000040993, 1.487351799965836, 1.5023421000223607, 1.5196654999745078, 1.535928800003603, 1.5545596000156365, 1.5692042000009678, 1.5865216999663971, 1.6036021999898367, 1.6208904999657534, 1.6358203999698162, 1.6530964999692515, 1.6689191000186838, 1.6868214000132866, 1.7040430000051856, 1.7206389000057243, 1.7369320999714546, 1.7526098999660462, 1.768910099985078, 1.7869545000139624, 1.8033873999956995, 1.820070800022222, 1.8355441999738105, 1.852023300016299, 1.8688262000214309, 1.8863238000194542, 1.9024866999825463, 1.9201721000135876, 1.935828500019852, 1.9530011999886483, 1.9686085999710485, 1.9863616999937221, 2.004072699986864, 2.018993199977558, 2.036293499986641, 2.052432399999816, 2.0696386999916285, 2.085912799986545, 2.102432699990459, 2.1198057999718003, 2.1350986000034027, 2.152715199976228, 2.168994900013786]
S04;5;0;0;1;False;3000;True;;8;-156.1913118161074;eye;L;-5.140752613544464;-1.5361538752913475;-163.36;5.37;1.4000172999803908;1.400071400043089;1685533721.1709332;1685533721.187026;1685533721.9417913;1685533722.4432843;1685533725.4391725;1685533726.8386776;[-0.06951665878295898, -0.2467595636844635, -0.16196507215499878, -0.18759611248970032, -0.3798733651638031, -0.40340760350227356, -0.34557539224624634, -0.28411468863487244, -0.11491981148719788, -0.174570232629776, -0.4406902492046356, 3.257103592157364, -0.702631950378418, -0.4625319838523865, -0.533349871635437, -0.868648499250412, -1.2991639077663422, -1.1834162473678589, -1.1740256547927856, -1.1639674603939056, -0.9932578802108765, -1.0506257712841034, -1.1274254620075226, -1.0656153857707977, -1.0632235705852509, -0.9886616766452789, -1.1106827557086945, -1.1000775694847107, -1.0841780006885529, -1.9148224592208862, -5.112788647413254, -4.2791091203689575, -4.974337428808212, -4.853319734334946, -4.816571623086929, -4.5348436534404755, -4.654554456472397, -4.6802738308906555, -4.734124779701233, -4.91922602057457, -5.252024680376053, -5.334860533475876, -5.461558222770691, -5.407293349504471, -5.475746601819992, -5.4532774686813354, -5.426723450422287, -5.687906384468079, -5.673588335514069, -5.6154933869838715, -5.744444727897644, -5.576589584350586, -5.571793496608734, -5.520574450492859, -5.6673522889614105, -5.811306267976761, -5.728369623422623, -5.841669976711273, -5.732195734977722, -5.7996750473976135, -5.66960084438324, -5.606557488441467, -5.7015460729599, -5.673433750867844, -5.692584693431854, -5.687987923622131, -5.655506461858749, -5.6313051879405975, -5.672855615615845, -5.626529484987259, -5.573214203119278, -5.499352186918259, -5.710712432861328, -5.800308108329773, -5.821722328662872, -5.763343125581741, -5.592685639858246, -5.70848935842514, -5.861068934202194, -5.983710616827011, -5.621335327625275, -5.314606547355652, -5.002312153577805, -5.140752613544464];[-0.3366483986377716, -0.15568630099296568, -0.20030596107244492, -0.3303710505366325, -0.2204383537173271, -0.1685082525014877, -0.20071125626564024, -0.1362705811858177, -0.25716578811407087, -0.10430457741022109, -0.5985957875847816, -2.8621486410498616, 0.35946658104658125, -0.6415803998708725, -1.0493124067783355, -2.165098898112774, -1.5735210835933684, -0.9225256070494651, -0.6583821862936019, -0.7134916171431541, -0.7399196371436119, -0.7967971131205558, -0.8970979034900665, -0.8655472800135612, -0.7891053289175033, -0.7721251621842384, -0.6844729855656624, -0.6387792617082595, -0.6124684810638428, -0.789849105477333, -1.614598350226879, -1.434035874903202, -1.6439623966813086, -1.5478601619601249, -1.586394090950489, -1.684441490471363, -1.67290980219841, -1.6437216147780418, -1.7521327212452886, -1.6309816047549246, -1.880378709733486, -1.9700516894459723, -1.8448690518736839, -1.7868796929717063, -1.8888357013463972, -1.8358775496482849, -1.8484480038285254, -1.911385367810726, -1.8217987418174741, -1.8780509412288664, -1.900016301870346, -1.8497357457876205, -1.903251729905605, -1.8101132556796073, -1.9542754322290419, -1.9235694363713263, -1.8944007888436316, -1.9127304688096045, -2.058798100054264, -2.1448183804750443, -2.0750275567173957, -1.9280472233891486, -1.963507716357708, -2.0097680971026417, -2.1672539591789244, -1.997688031196594, -2.152591475844383, -2.1454215958714484, -2.1345712825655934, -2.092178539931774, -2.0632531955838203, -2.0992740422487257, -2.101542560756206, -2.040116702020168, -1.9200774684548376, -2.1263115808367727, -2.037117013335228, -2.1714726850390433, -2.222136475145817, -2.205209885537624, -2.2063633695244786, -2.0532531827688216, -1.8177892819046972, -1.5361538752913475];[0.004491600033361465, 0.018374400038737804, 0.03542100003687665, 0.051351900037843734, 0.0682405999978073, 0.08527770004002377, 0.1020905000041239, 0.11870020005153492, 0.13608860003296286, 0.15182900003856048, 0.169021200039424, 0.18495950003853068, 0.20227680000243708, 0.2182467000093311, 0.23531380004715174, 0.2519068000256084, 0.268304800032638, 0.2853290000348352, 0.30189110001083463, 0.3185724000213668, 0.33549650001805276, 0.3516137000406161, 0.3685755000333302, 0.3849585000425577, 0.40197649999754503, 0.418043400044553, 0.4349538999958895, 0.4516251000459306, 0.46855290001258254, 0.48445170000195503, 0.5019212000188418, 0.5180561000015587, 0.5359806000487879, 0.551983300014399, 0.5684831000398844, 0.5846946000237949, 0.6019448000006378, 0.6179274000460282, 0.6354282000102103, 0.6513839000253938, 0.668402400042396, 0.6844255000469275, 0.7024032000335865, 0.7183271000394598, 0.7355592000531033, 0.7514730000402778, 0.7689715000451542, 0.7847734999959357, 0.8018470000242814, 0.817763700033538, 0.8354135000263341, 0.8515798000153154, 0.8690377000020817, 0.8851486000348814, 0.9024108000448905, 0.9186672000214458, 0.9356314000324346, 0.9521104000159539, 0.9687999000307173, 0.9849730000132695, 1.001497300050687, 1.0184577000327408, 1.0354632000089623, 1.051373300026171, 1.0684016000013798, 1.084549400024116, 1.10179570002947, 1.1183519000187516, 1.1357081000460312, 1.151302000042051, 1.1689633000059985, 1.1843936000368558, 1.2018026000005193, 1.2183705000206828, 1.2353902000468224, 1.2515534000121988, 1.269130300031975, 1.2848508000024594, 1.302141499996651, 1.3185546000022441, 1.3356130000320263, 1.3514736000215635, 1.3692885000491515, 1.3852030000416562]
S04;6;0;0;1;False;3000;True;;8;-128.90478223411247;eye;L;-5.29079994559288;-5.878385093808173;-131.99;7.91;1.4654772999929264;1.4655983000411652;1685533727.576995;1685533727.5861003;1685533728.3418636;1685533728.8424401;1685533731.8421726;1685533733.307758;[-1.6116247773170471, -1.5689022243022919, -1.3172310590744019, 0.21729731559753418, -0.02949395775794983, 0.06930431723594666, 0.008003294467926025, -0.14926648139953613, -0.24850699305534363, -0.04938951134681702, -0.03676736354827881, -0.0659685730934143, -0.19992664456367493, -0.15380322933197021, -0.12085121870040894, -0.014412611722946167, -0.09866011142730713, 0.011156708002090454, 0.01357683539390564, -0.04653620719909668, 0.030885785818099976, -0.1156400740146637, -0.07759979367256165, -0.0223638117313385, -0.1320713460445404, -0.019477665424346924, -0.018282324075698853, -0.13177520036697388, 0.007990837097167969, -0.0672120451927185, -0.020009934902191162, -0.014861643314361572, -0.8718517422676086, -2.439641296863556, -4.199358731508255, -4.356724202632904, -4.5830457508563995, -4.852400720119476, -4.622805148363113, -4.7528736889362335, -4.6895449459552765, -4.744822829961777, -4.600991725921631, -4.717743337154388, -4.727794736623764, -4.775404542684555, -4.80191496014595, -4.974117159843445, -4.7742578983306885, -4.920034617185593, -4.697124689817429, -4.848931908607483, -4.795205533504486, -4.879154622554779, -4.618861258029938, -4.917766809463501, -4.859415918588638, -4.909658759832382, -4.7385194003582, -4.726973116397858, -4.732588559389114, -4.840030550956726, -4.7710371017456055, -4.839408814907074, -4.706270098686218, -4.662387311458588, -4.819253921508789, -4.574501127004623, -4.829701125621796, -4.895840704441071, -4.935246765613556, -4.955418080091476, -4.799856096506119, -4.853577375411987, -4.899424463510513, -4.691797465085983, -4.864077806472778, -4.940163463354111, -4.751342564821243, -4.7059518694877625, -4.822472453117371, -4.82918244600296, -4.761530429124832, -4.916580528020859, -4.87275493144989, -5.113490790128708, -5.166612416505814, -5.29079994559288];[-0.6670238614082336, -0.41927062869071957, -0.5783032938838004, 0.7677932940423489, 0.7011193983256816, 0.6436090819537639, 0.770100262016058, 0.7294821828603744, 0.5539379931986331, 0.6901735916733741, 0.6617855943739414, 0.5790291063487529, 0.6648571394383906, 0.7472366966307162, 0.6018671438097953, 0.5802654772996902, 0.782768415659666, 0.5705365017056465, 0.7885307930409908, 0.7443321861326694, 0.7483514159917831, 0.7514869384467602, 0.6962142549455166, 0.7931261345744133, 0.8022931806743144, 0.8577990822494029, 0.798294436186552, 0.7612099260091781, 0.6355753496289253, 0.6507329486310481, 0.6569863446056843, 0.5165704697370529, -0.06391877084970474, -2.402432955801487, -4.434134267270565, -5.901892845332622, -6.259847290813923, -6.454949967563152, -6.531213538348674, -6.4480240210890765, -6.36560286283493, -6.4036728769540785, -6.400801143050193, -6.444041664898395, -6.463469360768794, -6.392902614176273, -6.510380861163139, -6.385922460258007, -6.503123366832733, -6.490945601463317, -6.537703934311867, -6.456131185591221, -6.463458015024662, -6.517412701249122, -6.466513802111148, -6.595068016648292, -6.466893884539604, -6.427003508806228, -6.542585755884647, -6.4686291530728335, -6.480827088654041, -6.56802417486906, -6.494240279495716, -6.531247575581073, -6.450341074168682, -6.6350958019495, -6.556159678101539, -6.585339671373367, -6.544156511127948, -6.445539303123951, -6.491178819537162, -6.47523111552, -6.537313136458397, -6.502527084946632, -6.586868195235729, -6.712618120014667, -6.71492760926485, -6.598717564344406, -6.532481740415096, -6.613354834914207, -6.653704713284969, -6.581777738034725, -6.583303740620613, -6.602038715779781, -6.598542335629463, -6.497589795291423, -5.63072829991579, -5.878385093808173];[0.006533700041472912, 0.017541500041261315, 0.03587170003447682, 0.05196030001388863, 0.07008020003559068, 0.08493740000994876, 0.10295979998772964, 0.11894210003083572, 0.13648809998994693, 0.15159620001213625, 0.1686378000304103, 0.18438470002729446, 0.20142190001206473, 0.21814270003233105, 0.23621850000927225, 0.2519614000339061, 0.2696373999933712, 0.2848526000161655, 0.302922300004866, 0.3186657000333071, 0.3370084000052884, 0.3514899000292644, 0.3704089000239037, 0.38352000003214926, 0.402676000026986, 0.417260600021109, 0.4354745000018738, 0.45121309999376535, 0.46917240001494065, 0.48417489998973906, 0.5029126000008546, 0.5184320000116713, 0.5364735000184737, 0.5514170000096783, 0.569060800014995, 0.5847330000251532, 0.603803500009235, 0.6171488999971189, 0.6353488999884576, 0.6508391000097618, 0.6682060000021011, 0.6846873000031337, 0.7021928000031039, 0.7174367000116035, 0.7348278000135906, 0.7522277000243776, 0.7692239999887533, 0.7844841000041924, 0.8031066000112332, 0.8179847000283189, 0.8353493000031449, 0.8499922000337392, 0.8675553000066429, 0.886074899986852, 0.9012426999979652, 0.9177815000293776, 0.9357496000011452, 0.9511656000395305, 0.9697660999954678, 0.9849646000075154, 1.003691499994602, 1.0189374000183307, 1.0356357000418939, 1.0511965000187047, 1.0690404000342824, 1.0849276999942958, 1.1007255000295117, 1.1166434999904595, 1.1350322000216693, 1.1511167000280693, 1.168859900033567, 1.1847380000399426, 1.20137770002475, 1.2168953000218607, 1.2358812000020407, 1.2516889999969862, 1.2688616000232287, 1.285149100003764, 1.302140599989798, 1.31781860004412, 1.3343366000335664, 1.3508628000272438, 1.3670986000215635, 1.3839498999877833, 1.4019121000310406, 1.415814700012561, 1.43495670001721, 1.4513933000271209]
S04;7;0;0;1;False;1000;True;;8;-76.05870919733877;eye;L;2.075115978717804;-7.4049436211585995;-74.35;7.69;1.9150395999895409;1.9151281000231393;1685533734.160429;1685533734.1694698;1685533734.9218376;1685533735.4255912;1685533736.4073396;1685533738.322749;[-0.12453803420066833, -0.19199469685554504, -0.08007881045341492, -0.17213481664657593, -0.23652809858322144, -0.0578559935092926, -0.22596991062164307, -0.12333080172538757, -0.011707097291946411, -0.12282457947731018, -0.12348142266273499, -0.28382250666618347, -0.23158138990402222, -0.09032103419303894, -0.09719806909561157, -0.20669439435005188, -0.27075302600860596, -0.27577900886535645, -0.31354352831840515, -0.29724645614624023, -0.28083500266075134, -0.23081526160240173, -0.34604933857917786, -0.3057452142238617, -0.28282251954078674, -0.4479715824127197, -0.25898477435112, -0.2182406783103943, -0.2420653998851776, -0.15832015872001648, 0.04688557982444763, 1.4068176746368408, 1.5529381036758423, 1.603350818157196, 1.5651508569717407, 1.6230844259262085, 1.5574839115142822, 1.5853193402290344, 1.5246258974075317, 1.6226348280906677, 1.8572852611541748, 1.6495121717453003, 1.706446886062622, 1.5871585011482239, 1.6911231875419617, 1.5665245652198792, 1.7584994435310364, 1.6060631275177002, 1.6307944059371948, 1.6554996371269226, 1.7549049258232117, 1.8084127306938171, 1.642995834350586, 1.6893791556358337, 1.7698413133621216, 1.6076418161392212, 1.700589656829834, 1.6402642726898193, 1.7603499293327332, 1.8505492210388184, 1.7600464224815369, 1.6813566088676453, 1.5538520216941833, 1.742520034313202, 1.520066499710083, 1.4952593445777893, 1.6393582820892334, 1.57028329372406, 1.6113824248313904, 1.595732569694519, 1.5808482766151428, 1.8412764072418213, 1.738922119140625, 1.8803517818450928, 2.0356544256210327, 2.1115424633026123, 2.1514196395874023, 2.0442205667495728, 2.0900319814682007, 2.109686315059662, 2.0407517552375793, 2.186833679676056, 2.025092840194702, 2.1484344005584717, 2.050106108188629, 2.1093884706497192, 2.03317654132843, 2.028013527393341, 2.077888309955597, 1.9898396134376526, 2.0372602939605713, 2.054953157901764, 2.013018250465393, 2.0964531898498535, 2.112293303012848, 2.161087691783905, 2.22916042804718, 1.9815430045127869, 1.9657210111618042, 2.1002798676490784, 2.1823275089263916, 1.941106379032135, 1.9855576753616333, 2.076482892036438, 2.0170114040374756, 1.8853924870491028, 2.0503031611442566, 1.8612104654312134, 2.135029137134552, 1.9524222016334534, 2.097145140171051, 1.987451195716858, 1.8877061605453491, 1.9193467497825623, 2.075115978717804];[0.9368987739086151, 0.769213718175888, 0.8203619085252285, 0.8400360591709614, 0.7677028432488441, 0.7916685216128826, 0.7654472462832927, 0.7488348707556725, 0.8245910346508025, 0.6872167646884918, 0.8111384488642215, 0.7035697638988494, 0.6415507748723029, 0.6565602488815784, 0.8930884435772896, 0.8992012783885002, 0.7458169028162955, 0.7317027971148491, 0.7379010401666164, 0.6956860475242137, 0.6636116288602352, 0.725391411781311, 0.7863807745277881, 0.7057468861341476, 0.698140825331211, 0.7422943644225597, 0.743993704766035, 0.7007509768009186, 0.6632658988237381, 0.7285540379583835, -0.2513473123311996, -5.604396718740463, -6.166169263422489, -6.491522973775863, -6.627415363490581, -6.6038464710116385, -6.572585164010524, -6.6049022555351256, -6.525229918956756, -6.564316637814045, -6.684657794237136, -6.586376546323299, -6.602700550854205, -6.725445114076137, -6.732799047231674, -6.739893919229507, -6.755012123286724, -6.7361624300479885, -6.783314712345599, -6.847283278405666, -6.811879514157772, -6.828127880394458, -6.878134877979755, -6.91921025365591, -6.817567513883113, -6.829468569159507, -6.855624921619891, -6.781818334758281, -6.92244505137205, -6.954083919525146, -6.825977231562137, -6.994977763295173, -7.049298664927482, -7.124844302237033, -7.1489042133092875, -7.05112722069025, -6.9209688439965245, -6.956281842291355, -7.0973125934600825, -7.249312788248061, -7.555178922414779, -7.641327787935733, -7.920806872844696, -7.7887770786881445, -7.651702840626239, -7.761476066708564, -7.604527866840362, -7.658800233900546, -7.57476987093687, -7.593980737030505, -7.602292124927043, -7.573258996009826, -7.510201241075992, -7.6002864494919775, -7.474290069937705, -7.4986525341868395, -7.4332934841513625, -7.510125602781772, -7.47739691287279, -7.391004744172096, -7.432574290037155, -7.508147031068801, -7.528260514140128, -7.538341838121414, -7.552302145957946, -7.420005096495151, -7.56761070638895, -7.575997102260589, -7.559879842400551, -7.534871931374073, -7.486616590619087, -7.53575942069292, -7.51603358387947, -7.439993146061897, -7.560311610996723, -7.550260542333126, -7.485788351297378, -7.32940113544464, -7.303137628734111, -7.42022003531456, -7.402603246271609, -7.322434218227863, -7.450753323733806, -7.427163630723952, -7.4049436211585995];[0.005291600013151765, 0.021258699998725206, 0.036564000009093434, 0.05355690000578761, 0.06850210000993684, 0.08714620000682771, 0.10205390001647174, 0.11902980000013486, 0.13500599999679253, 0.15555149997817352, 0.16848450002726167, 0.1865708000259474, 0.20170400000642985, 0.21871719998307526, 0.2351189000182785, 0.25135480001335964, 0.26815860002534464, 0.28726309997728094, 0.302451400028076, 0.31908290000865236, 0.3378392999875359, 0.3534625000320375, 0.3687049000291154, 0.386518299987074, 0.4017662000260316, 0.42080510000232607, 0.4349831999861635, 0.4519894000259228, 0.4692427000263706, 0.48684660001890734, 0.5031145000248216, 0.5188679000129923, 0.5346098000300117, 0.5543998000212014, 0.5699648000299931, 0.5860418999800459, 0.60185909998836, 0.6194601000170223, 0.6353256999864243, 0.6534317000187002, 0.6691183000220917, 0.6865414999774657, 0.7029781999881379, 0.7211027999874204, 0.7353864000178874, 0.7546950000105426, 0.7704965000157245, 0.7867524999892339, 0.8017028000322171, 0.8208355000242591, 0.8347660999861546, 0.8523745000129566, 0.8682534000254236, 0.8852880999911577, 0.9021661999868229, 0.9184660000028089, 0.9344239999772981, 0.9535405000206083, 0.9686197999981232, 0.9873061000253074, 1.0015192999853753, 1.020265200000722, 1.0354242000030354, 1.0529096000245772, 1.0682680000318214, 1.0858302999986336, 1.1024727000040002, 1.119638499978464, 1.1348348000319675, 1.152111999981571, 1.1687466999865137, 1.1855213000089861, 1.2019973000278696, 1.2180909999879077, 1.2357521000085399, 1.2521649000118487, 1.2682547000003979, 1.2867860000114888, 1.3014987999922596, 1.3194940999965183, 1.3351617000298575, 1.3535238999756984, 1.368353300029412, 1.3880972000188194, 1.4022824999992736, 1.4192930000135675, 1.435472299985122, 1.4533702000044286, 1.4687266999972053, 1.4876062999828719, 1.5027306000120007, 1.5192610999802127, 1.534543699992355, 1.5518056000000797, 1.5679776000324637, 1.5869818999781273, 1.6033373000100255, 1.620010100014042, 1.6370874000131153, 1.653516300022602, 1.669339400017634, 1.6882189000025392, 1.7027867999859154, 1.7205559000140056, 1.7353564000222832, 1.752203300013207, 1.7680485000018962, 1.7857501999824308, 1.8017099000280723, 1.8200107000302523, 1.8358222999959253, 1.8531398000195622, 1.8676729000289924, 1.8852093000314198, 1.900358300015796]
S04;8;0;0;1;False;1000;True;;8;136.82507847324777;eye;L;-5.60165211558342;5.114183988422155;137.6;7.59;0.9842797000310384;0.9843515999964438;1685533739.1180394;1685533739.1364734;1685533739.8922207;1685533740.3920262;1685533741.3730223;1685533742.3575401;[-0.08449211716651917, -0.06424209475517273, -0.01964697241783142, 0.054181069135665894, 0.09810349345207214, 0.09654802083969116, 0.13232502341270447, 0.05182775855064392, -0.06623414158821106, -0.10301792621612549, 0.32532989978790283, 0.16964390873908997, 0.1680646538734436, 0.00921449065208435, -0.10159042477607727, -0.013880342245101929, -0.0022864937782287598, 0.04149889945983887, -0.048460304737091064, -0.05278980731964111, -0.014124393463134766, -0.14035436511039734, -1.6710577607154846, -4.977452337741852, -5.5677352249622345, -5.437946408987045, -5.575128674507141, -5.5482451021671295, -5.518554091453552, -5.612826943397522, -5.428996354341507, -5.509224086999893, -5.459511250257492, -5.592876464128494, -5.4982757568359375, -5.397196650505066, -5.4743757247924805, -5.53567561507225, -5.419696360826492, -5.452891856431961, -5.491571992635727, -5.49920779466629, -5.600019067525864, -5.591661304235458, -5.570592492818832, -5.534407794475555, -5.596466451883316, -5.5603751838207245, -5.575215309858322, -5.60178405046463, -5.604461252689362, -5.524394333362579, -5.489050507545471, -5.597435295581818, -5.515588670969009, -5.485897094011307, -5.615215927362442, -5.576465576887131, -5.60165211558342];[0.5716326266527175, 0.6320370532572269, 0.6330376848578453, 0.5782248191535473, 0.6655643574893474, 0.7703712992370129, 0.6592668391764164, 0.6595340944826602, 0.6681502416729926, 0.7464683376252651, 0.5885623678565025, 0.8351942628622054, 0.7592836707830428, 0.6879287101328373, 0.5480678312480449, 0.5237233310937881, 0.5771901503205299, 0.7027714647352695, 0.7015086203813552, 0.6795564964413643, 0.7538900300860405, 0.5737489230930805, 1.882140451669693, 4.098645025491714, 5.141296219825744, 4.930979845672845, 5.309558963030576, 5.226050661876798, 5.437115382403135, 5.172884662449359, 5.0279043316841125, 5.143122569471597, 5.140733975172043, 5.197209465131163, 5.400664500519633, 5.158248022198677, 5.2455487959086895, 5.177001276612281, 5.004591033607721, 5.136194732040167, 5.2093615449965, 5.123064712062478, 5.081220504641532, 5.137764226645231, 5.193003188073635, 5.164772770553827, 5.151493837684392, 5.203979722782969, 5.356254579126834, 5.020914722979068, 5.04019019678235, 5.249652803689241, 5.174080377817154, 5.09714078977704, 5.08803220577538, 5.110217705368996, 5.132936927676201, 5.022844760119915, 5.114183988422155];[0.005719599954318255, 0.02006690000416711, 0.03559240000322461, 0.05406549997860566, 0.07157609995920211, 0.08697589999064803, 0.10249099996872246, 0.11970939999446273, 0.13645639998139814, 0.1541469999938272, 0.16818350000539795, 0.1876234999508597, 0.2026592000038363, 0.2217399000073783, 0.2360684999730438, 0.2547210999764502, 0.2696547999512404, 0.2868843000032939, 0.303917899960652, 0.3228266999940388, 0.3350146999582648, 0.3535594999557361, 0.36932749999687076, 0.3872282999800518, 0.4030252999509685, 0.42157639999641106, 0.4363982999930158, 0.45571619999827817, 0.4692932000034489, 0.48656009999103844, 0.5020404999959283, 0.5195269999676384, 0.5386374999652617, 0.5532867999863811, 0.5694839999778196, 0.5866236999863759, 0.6033784999744967, 0.6202599999960512, 0.635798999981489, 0.6529397999984212, 0.667793900007382, 0.6885312999947928, 0.7046650999691337, 0.7219711999641731, 0.7379829999990761, 0.7537455999990925, 0.7708786999573931, 0.7881470999564044, 0.8029006999568082, 0.8204893000074662, 0.8368581999675371, 0.8533780999714509, 0.8697573999525048, 0.8865805999957956, 0.9028161999885924, 0.9202561999554746, 0.9354613999603316, 0.9520523999817669, 0.9685231999610551]
S04;9;0;0;1;False;3000;True;;8;-43.85502175529833;eye;L;4.474643409252167;-4.617300590872764;-45.9;6.43;1.2143157999962568;1.2144146999926306;1685533743.1447845;1685533743.1527853;1685533743.9083717;1685533744.408125;1685533747.407432;1685533748.6225283;[-0.10390579700469971, 0.049479544162750244, 0.030261218547821045, -0.013246715068817139, 0.06902232766151428, 0.19506770372390747, 0.19424834847450256, 0.14935651421546936, 0.0941392183303833, 0.06489044427871704, 0.07046285271644592, 0.16228556632995605, 0.10746690630912781, 0.01121559739112854, 0.12379908561706543, 0.03136086463928223, -0.01687067747116089, 0.07011574506759644, 0.4437224864959717, 1.1899767518043518, 2.004155397415161, 2.8860817551612854, 3.618083655834198, 4.390813231468201, 4.3410539627075195, 4.357029974460602, 4.375469148159027, 4.287097692489624, 4.317186772823334, 4.35265177488327, 4.243700742721558, 4.443579256534576, 4.371554136276245, 4.455887138843536, 4.314275145530701, 4.256782114505768, 4.2418389320373535, 4.388218700885773, 4.524249792098999, 4.417513906955719, 4.246269226074219, 4.391851723194122, 4.287176966667175, 4.275418341159821, 4.423862636089325, 4.276905298233032, 4.340628147125244, 4.312981843948364, 4.394977390766144, 4.492481231689453, 4.551172435283661, 4.471691012382507, 4.33156144618988, 4.370724022388458, 4.299900472164154, 4.342999577522278, 4.307643294334412, 4.3972978591918945, 4.331961214542389, 4.457197427749634, 4.425578355789185, 4.344702839851379, 4.43481832742691, 4.406062185764313, 4.268835186958313, 4.394499480724335, 4.169051647186279, 4.290525734424591, 4.393118977546692, 4.377372860908508, 4.437933802604675, 4.406488001346588, 4.474643409252167];[0.006962189823389053, -0.1383638709783554, -0.04274887293577194, -0.03097293600440025, -0.22476927638053892, -0.022422657161951062, -0.09987816140055655, -0.004062721878290176, 0.3386351644992828, 0.32176341265439984, 0.24256003350019453, 0.2392956107854843, 0.3714275166392326, 0.46360506936907764, 0.2973870813846588, 0.35616717562079425, 0.2430519975721836, 0.17290504351258276, -0.07780564650893211, -0.07238458693027496, -2.1958074152469633, -3.424946084618568, -4.015302340686321, -4.1686488971114155, -4.2697350651025765, -4.324847647547721, -4.332215447723865, -4.355529691278934, -4.358444286882877, -4.42766593247652, -4.469425204396248, -4.347079002857208, -4.360344699025154, -4.43760669529438, -4.500511282682418, -4.459243659675121, -4.460154470801353, -4.438849684596061, -4.442871750891208, -4.461660303175449, -4.573944720625877, -4.58099357932806, -4.563598662614822, -4.59533270895481, -4.532444509863853, -4.6032280862331385, -4.706263200938701, -4.754442903399467, -4.525141002237796, -4.742969834804534, -4.686261914670467, -4.6944409355521195, -4.739030340313911, -4.617605665326118, -4.574129404127597, -4.6346784889698025, -4.707611453533172, -4.6477134883403775, -4.788281585276127, -4.658193174004555, -4.693690855801105, -4.679635369777679, -4.6179844871163365, -4.734301055967808, -4.7371797233819954, -4.764192679524421, -4.713436862826347, -4.613939099013805, -4.739027819037437, -4.8337918862700455, -4.611215490102768, -4.711871150135994, -4.617300590872764];[0.005237900011707097, 0.019854300015140325, 0.03469050000421703, 0.0523172999965027, 0.07121840002946556, 0.08581439999397844, 0.10224330000346527, 0.11806559999240562, 0.1367164000403136, 0.151895200018771, 0.1690936000086367, 0.18528169998899102, 0.20184990001143888, 0.21782260003965348, 0.23727410001447424, 0.2514206999912858, 0.2693219000357203, 0.28476449998561293, 0.30258399999001995, 0.31895909999730065, 0.3370545000070706, 0.351225099992007, 0.3682453000219539, 0.3859618999995291, 0.40418930002488196, 0.4178366999840364, 0.43609339999966323, 0.45322910003596917, 0.468628800008446, 0.4856238000211306, 0.5031324999872595, 0.5191612000344321, 0.5362096999888308, 0.5523439000244252, 0.5714099000324495, 0.5842772999894805, 0.6042686000000685, 0.6191102000302635, 0.6346819000318646, 0.6528237999882549, 0.6683697000262327, 0.6852062999969348, 0.7030239999876358, 0.717164000030607, 0.7343816999928094, 0.75168390001636, 0.7685125999851152, 0.784664100036025, 0.8033370000193827, 0.8189675000030547, 0.8369020000100136, 0.8522298000170849, 0.8696939999936149, 0.8852013000287116, 0.9030471000005491, 0.9177986999857239, 0.9357234000344761, 0.9521308999974281, 0.9707406000234187, 0.9866977999918163, 1.0030755000188947, 1.0183991999947466, 1.035754500015173, 1.0525984999840148, 1.0680047000059858, 1.0846443999907933, 1.1026612999849021, 1.1184440000215545, 1.1367835000273772, 1.1517392999958247, 1.1695282000000589, 1.1850758999935351, 1.2017168999882415]
S04;10;0;0;1;False;3000;True;;8;-71.81222228622508;eye;L;3.989092469215393;-6.377775585651397;-57.98;7.52;0.8308817999786697;0.8309963999781758;1685533749.4367738;1685533749.452686;1685533750.2078693;1685533750.708574;1685533753.708229;1685533754.53915;[0.17444396018981934, 0.07871472835540771, 0.22990813851356506, 0.15338987112045288, 0.004169821739196777, 0.22712165117263794, 0.16040563583374023, 0.058128923177719116, 0.0958385169506073, 0.18010073900222778, 0.15284061431884766, 0.09325078129768372, 0.03882509469985962, 0.029797464609146118, 0.026960015296936035, 0.11302345991134644, 0.7888369560241699, 2.014190375804901, 2.977696657180786, 3.339933216571808, 3.5951337814331055, 3.7513831853866577, 3.87064665555954, 3.8286324739456177, 3.8744688034057617, 3.8486152291297913, 3.8817824125289917, 3.978254556655884, 3.9691312313079834, 3.9447487592697144, 3.990841031074524, 4.056563854217529, 4.164519429206848, 4.10819399356842, 4.186497628688812, 4.1070422530174255, 4.057588756084442, 4.059219539165497, 4.098325490951538, 3.9883710741996765, 4.069165050983429, 4.145397365093231, 4.276145398616791, 4.036102056503296, 4.050823271274567, 4.082245290279388, 4.156475365161896, 4.1132007241249084, 3.9817992448806763, 3.989092469215393];[-0.10686335787177086, -0.13464246690273285, -0.1525750458240509, -0.07236000448465346, -0.0317523255944252, 0.0018175251781940458, -0.07877381667494773, -0.12750095129013062, -0.0792355254292488, -0.03521466851234436, -0.06921408176422118, 0.04463762417435646, -0.034961595386266704, 0.000836433470249176, -0.19084550142288206, -0.36589646637439727, -0.4682325571775436, -2.960120402276516, -4.645833876729011, -5.627519975602627, -6.121628393232822, -6.451903004944324, -6.455486369132995, -6.331172941625118, -6.336995829641818, -6.194849413633346, -6.322373056411743, -6.106152167916298, -6.181497363746166, -6.270717144012451, -6.305426926910877, -6.30674051195383, -6.203634801506996, -6.131884315609931, -6.302252009510994, -6.27444422096014, -6.229414853453636, -6.327200670540332, -6.286197781562805, -6.276793420314789, -6.308456240594387, -6.300855852663517, -6.298732307553291, -6.286432890594005, -6.415346387028694, -6.324361713230609, -6.44852701574564, -6.417499557137489, -6.398893167078494, -6.377775585651397];[0.0048537999973632395, 0.01662790001137182, 0.03487519995542243, 0.05074909998802468, 0.0702307999599725, 0.08431579999160022, 0.10301129997242242, 0.118111299991142, 0.13634029997047037, 0.152530699968338, 0.16945220000343397, 0.1856300999643281, 0.2013380999560468, 0.21828529995400459, 0.23581109999213368, 0.2510649999603629, 0.2690963000059128, 0.284479999972973, 0.3023523999727331, 0.31814459996530786, 0.33594359998824075, 0.35166929999832064, 0.36937919998308644, 0.38389190001180395, 0.40206699998816475, 0.41942170000402257, 0.43701160000637174, 0.4506662999629043, 0.46907789999386296, 0.4845789999817498, 0.5020751999691129, 0.5184134999872185, 0.5353334000101313, 0.550575100001879, 0.5690486999810673, 0.5844853000016883, 0.6019929999602027, 0.6177047999808565, 0.6367189000011422, 0.6515090999891981, 0.6683175999787636, 0.6842021999764256, 0.7030170999933034, 0.7179771999944933, 0.7341939999605529, 0.7507376999710687, 0.7688495999900624, 0.7832967999856919, 0.8011780999950133, 0.816520299995318]
S04;11;0;0;1;False;1000;False;;8;87.78085688054833;eye;L;nan;nan;nan;nan;0.0022136999759823084;0.002287300012540072;1685533755.3856041;1685533755.4016418;1685533756.1578422;1685533756.6410487;1685533756.6426728;1685533756.6449137;[];[];[]
S04;11;0;0;1;False;1000;True;;8;-144.23497911904485;eye;L;-4.819254487752914;-3.937960924208164;-140.75;6.22;0.9343713999842294;0.9344672999577597;1685533757.2070749;1685533757.2192888;1685533757.9739387;1685533758.474817;1685533759.4555507;1685533760.3904676;[-0.20274031162261963, -0.27182379364967346, -0.09267604351043701, -0.14627444744110107, -0.2541009187698364, -0.1801488697528839, -0.03705444931983948, -0.19636043906211853, -0.43686696887016296, -0.13060873746871948, -0.2576456069946289, -0.12592816352844238, -0.02281510829925537, -0.2261488437652588, -0.37008753418922424, -0.3380047082901001, -0.22599086165428162, -0.24101445078849792, -0.43881428241729736, -0.2987000048160553, -0.26993367075920105, -0.3493380844593048, -1.5343409478664398, -4.770765870809555, -4.396729350090027, -4.905026316642761, -4.76314252614975, -4.687623679637909, -4.970774054527283, -4.995355278253555, -4.99901208281517, -4.938151031732559, -4.970783680677414, -4.85120764374733, -4.951530247926712, -5.041668385267258, -5.071464717388153, -4.971747428178787, -4.797649443149567, -4.893010050058365, -4.650646805763245, -4.778646856546402, -4.938388288021088, -4.851135730743408, -4.758523672819138, -4.958769679069519, -4.947308331727982, -4.94507110118866, -4.766232520341873, -4.8025955855846405, -4.874611645936966, -4.901021271944046, -4.7607733607292175, -4.95005065202713, -4.8909715712070465, -4.819254487752914];[0.28390234932303426, 0.1850096918642521, 0.25755721628665923, 0.1747566059231758, 0.05699849724769592, 0.09109592512249946, 0.15636263340711593, 0.1099654734134674, 0.1789832107722759, 0.16825517937541007, 0.13193587660789488, 0.11592986807227133, 0.1722917430102825, 0.10464621037244796, -0.0343341127038002, -0.12250693291425704, 0.12028726413846015, 0.021455117315053937, -0.10739660784602165, 0.05057365447282791, -0.13165191784501074, 0.08213972076773643, -0.9562924325466156, -4.013717718422413, -3.4106554895639416, -3.8354256525635715, -3.8375624343752857, -3.7784555196762084, -3.8011054068803785, -3.7755629852414128, -3.893263104557991, -3.8459809765219686, -4.015650276839732, -3.933873304724693, -3.9157686486840246, -3.9593716040253635, -4.026145720481872, -3.9487110167741775, -3.9980152085423466, -3.9329845547676086, -3.923664656281471, -3.9086082234978674, -3.8404984608292576, -3.9662906169891357, -3.898146817088127, -3.82001561075449, -3.865298996865749, -3.914306308329105, -3.942377570271492, -3.887639397382736, -3.947111266851425, -3.8455744206905362, -3.859123760461807, -3.8829145252704618, -3.848983186483383, -3.937960924208164];[0.0059896999737247825, 0.019242200010921806, 0.03405009995913133, 0.05420700000831857, 0.07010309997713193, 0.08617189998039976, 0.10326469998108223, 0.12060029996791855, 0.13573669997276738, 0.1559259999776259, 0.16920740000205114, 0.18880159995751455, 0.20209959999192506, 0.22030799998901784, 0.2354903999948874, 0.2533625999931246, 0.26864530000602826, 0.28604239999549463, 0.30274039995856583, 0.3206977999652736, 0.335369799984619, 0.3537967999582179, 0.36981229996308684, 0.38672099995892495, 0.40341530001023784, 0.4201265999581665, 0.4365919000119902, 0.4529220999684185, 0.46858980000251904, 0.48684600001433864, 0.5029274999978952, 0.519499399990309, 0.535894799977541, 0.5542217000038363, 0.5693150999723002, 0.5880741999717429, 0.6022812000010163, 0.6202368999947794, 0.6366723999963142, 0.6530237999977544, 0.6694176999735646, 0.6862010000040755, 0.7024749999982305, 0.7187665000092238, 0.7347566999960691, 0.7534592999727465, 0.768999999971129, 0.7867917999974452, 0.8025756999850273, 0.8193042000057176, 0.8358436999842525, 0.85460779996356, 0.8687248000060208, 0.8859191999654286, 0.9036046999972314, 0.9203404000145383]
S04;12;0;0;1;False;1000;True;;8;110.64895951976717;eye;L;-2.756331443786621;6.872556396201253;111.85;7.4;0.8647579000098631;0.8648494000080973;1685533761.0856528;1685533761.1017394;1685533761.8570786;1685533762.3585482;1685533763.3402038;1685533764.2051234;[0.09123381972312927, 0.01563739776611328, 0.07261684536933899, 0.035821735858917236, 0.12596836686134338, 0.07159081101417542, 0.00931018590927124, 0.08398306369781494, 0.06184008717536926, 0.0751689076423645, 0.03929677605628967, 0.07214629650115967, -0.043382227420806885, 0.13039469718933105, 0.006986886262893677, 0.08273449540138245, 0.009722977876663208, 0.029465079307556152, 0.09263244271278381, 0.03723904490470886, -1.1676627695560455, -2.417259931564331, -2.7306369841098785, -2.2391019761562347, -2.4811192452907562, -2.723971724510193, -2.648429661989212, -2.5858223140239716, -2.5853347778320312, -2.808891922235489, -2.6625274419784546, -2.7352229952812195, -2.7402280271053314, -2.8407912850379944, -2.8294301629066467, -2.7545381486415863, -2.769662529230118, -2.826058179140091, -2.8243118822574615, -2.7692395448684692, -2.8103743493556976, -2.874173641204834, -2.7966621816158295, -2.7159990072250366, -2.7494447827339172, -2.699973165988922, -2.7415502071380615, -2.7411283552646637, -2.761155843734741, -2.7292966842651367, -2.8998120427131653, -2.756331443786621];[0.6287322901189327, 0.4410175837576389, 0.456287694722414, 0.6060524627566337, 0.4982757724821567, 0.5452726811170577, 0.6071618244051933, 0.634482691437006, 0.6113676287233829, 0.592291335761547, 0.5972257889807224, 0.3314526781439781, 0.4474052377045154, 0.395572205632925, 0.4265265472233295, 0.2796508468687534, 0.33448545858263967, 0.3533868379890919, 0.47417867258191104, 0.42673644348978995, 2.569093742966652, 6.159046342223882, 6.630085080116987, 6.626808523759245, 6.602580002322792, 6.751662765070796, 6.804605789110064, 6.945944608747959, 6.636908914893865, 6.784417455643415, 6.651202661544084, 6.660102137178182, 6.69508437551558, 6.681624698638916, 7.22271418813616, 6.825100772827863, 6.778195890784263, 7.074080921709537, 7.038281632214784, 6.665948031842708, 6.779723626747727, 6.540316607058048, 6.478006568178534, 6.671141703799367, 6.696147566288709, 7.070892925187945, 6.570803882181644, 6.5955413863062855, 6.577123146504164, 6.8068646952509875, 6.8233970202505585, 6.872556396201253];[0.0071128999697975814, 0.018768700014334172, 0.034648099972400814, 0.0541092999628745, 0.06876519997604191, 0.08595410000998527, 0.10251639998750761, 0.12006420001853257, 0.1361464000074193, 0.15261869999812916, 0.16930830001365393, 0.18724980001570657, 0.2002343999920413, 0.21883480000542477, 0.2353480000165291, 0.2528720999835059, 0.26835669996216893, 0.28634649998275563, 0.30101519997697324, 0.3199178999639116, 0.335110199986957, 0.35225210001226515, 0.37015360000077635, 0.3865730999968946, 0.4013656000024639, 0.4197749000159092, 0.43467889999737963, 0.45303779997630045, 0.46844919997965917, 0.48620330000994727, 0.5038148000021465, 0.5195509999757633, 0.5358187999809161, 0.55432940000901, 0.5688298000022769, 0.5868273999658413, 0.5994444999960251, 0.6181555999792181, 0.6347676999866962, 0.6523947999812663, 0.6693983000004664, 0.686272699967958, 0.7012694000150077, 0.7199114999966696, 0.7364173000096343, 0.7535279999719933, 0.768968100019265, 0.785015499975998, 0.8029880999820307, 0.8185451999888755, 0.8337147000129335, 0.8518047999823466]
S04;13;0;0;1;False;3000;True;;8;-82.76861040990632;eye;L;0.8760226964950562;-6.914941732585429;-82.78;6.97;0.9676255999947898;0.9677230000379495;1685533764.924979;1685533764.9339812;1685533765.6901941;1685533766.1913693;1685533769.1882744;1685533770.155823;[-0.1451493203639984, -0.15918764472007751, -0.17178714275360107, -0.16276970505714417, -0.1547601819038391, -0.13576608896255493, -0.06341707706451416, -0.1575019359588623, -0.23457059264183044, -0.18013980984687805, -0.23531293869018555, -0.20729291439056396, -0.12088519334793091, -0.13743537664413452, -0.1641049087047577, -0.08873838186264038, -0.13733118772506714, -0.03529965877532959, 0.275404155254364, 0.8947268724441528, 0.6243985295295715, 0.8410944938659668, 0.7927972674369812, 1.034961760044098, 0.9048592448234558, 0.9172101616859436, 1.02460515499115, 0.8410446643829346, 0.9678357839584351, 0.9746918678283691, 1.110940396785736, 1.099229335784912, 1.028849720954895, 0.9226370453834534, 0.9511961340904236, 0.9069690704345703, 0.9227027297019958, 0.9392381906509399, 0.9416220784187317, 0.9355224967002869, 1.100237250328064, 1.0303593277931213, 0.7900691032409668, 0.7693751454353333, 0.7441648244857788, 1.0044661164283752, 0.9020812511444092, 0.9575595855712891, 0.8986815214157104, 0.8277311325073242, 0.8654882907867432, 0.8045207858085632, 0.8729763031005859, 1.0248950719833374, 0.8470876216888428, 1.0139994025230408, 0.753652811050415, 0.8760226964950562];[0.3144044369459152, 0.22229338288307188, 0.3401532880961895, 0.26971890851855274, 0.1752835527062416, 0.2953662782907486, 0.13957408368587493, 0.15989683270454405, 0.19640239477157592, 0.24227449893951414, 0.22950738519430158, 0.24631768092513082, 0.2208231635391712, 0.16595514491200447, 0.14493746906518934, 0.10878646150231361, 0.19510740414261818, -0.4276185750961303, -1.6037776619195938, -3.8994679659605023, -5.848775853216647, -6.072939392924308, -6.269022846221923, -6.434172758460044, -6.665446297824382, -6.71087339669466, -6.7082790032029145, -6.829042473435401, -6.8077231898903845, -6.7782923296093935, -6.8563926503062245, -6.687993443012237, -6.8202249392867085, -6.898125448822975, -6.817575077712536, -6.838897512853145, -6.793996100127696, -6.709913420677185, -6.785092842578887, -6.846228754520416, -6.826369920372962, -6.735591360926628, -6.889495119452476, -6.777567462623119, -6.769235274195671, -6.737848533689975, -6.95319579988718, -6.758488963544369, -6.857398009300232, -6.827853691577911, -6.812250772118568, -6.850956778228283, -6.872839567065238, -6.9547747492790215, -6.896545869112014, -6.828807364404201, -6.808639043569564, -6.914941732585429];[0.0050425000372342765, 0.019224999996367842, 0.036669099994469434, 0.053803700022399426, 0.07080690003931522, 0.08685790002346039, 0.10342530003981665, 0.12146400002529845, 0.1378161000320688, 0.15277079999214038, 0.17122020001988858, 0.18922770000062883, 0.20329400000628084, 0.21944990003248677, 0.23809650004841387, 0.25328730000182986, 0.2707420000224374, 0.28628120000939816, 0.3042169000254944, 0.31953810004051775, 0.3374848000239581, 0.35380919999442995, 0.3720134000177495, 0.38659270002972335, 0.4047499000444077, 0.4197291000164114, 0.4368707000394352, 0.4531439000274986, 0.47154320002300665, 0.4870653999969363, 0.5038897999911569, 0.5195297000464052, 0.5361015000380576, 0.5536449000355788, 0.5712780000176281, 0.5866794000030495, 0.6031762000056915, 0.6206313000293449, 0.6361321000149474, 0.6532394000096247, 0.6714267000206746, 0.6875599999912083, 0.70316490001278, 0.719258000026457, 0.7343802000395954, 0.7527324000257067, 0.7702644999953918, 0.7872359000029974, 0.8035618000430986, 0.8180688000284135, 0.8363826000131667, 0.8536149000283331, 0.8726042000344023, 0.8867188000003807, 0.9020829999935813, 0.918788900016807, 0.9350740000372753, 0.9513879000442103]
S04;14;0;0;1;False;1000;True;;8;-51.312338146109745;eye;L;5.068077445030212;-6.139601942896842;-50.46;7.96;1.9991766000166535;1.9992491999873891;1685533770.920805;1685533770.934768;1685533771.6878753;1685533772.1904483;1685533773.1721303;1685533775.1717973;[-0.1403515338897705, 0.02438756823539734, 0.002544701099395752, 0.08356744050979614, 0.14871948957443237, -0.010654449462890625, 0.1287967562675476, 0.036730557680130005, 0.032489389181137085, 0.1770656704902649, 0.14206725358963013, -0.0910424292087555, 0.15810725092887878, 0.11247080564498901, 0.11374145746231079, 0.14572066068649292, -0.014623820781707764, 2.4441157579421997, 4.474858582019806, 4.035599231719971, 4.418306648731232, 4.76761132478714, 4.45596981048584, 4.56821072101593, 4.8185789585113525, 4.511393785476685, 4.594491243362427, 4.662254810333252, 4.607504665851593, 4.618507921695709, 4.618452429771423, 4.488643229007721, 4.7632365226745605, 4.594714343547821, 4.6102215051651, 4.6749114990234375, 4.479837000370026, 4.5763861536979675, 4.500116467475891, 4.3806944489479065, 4.718878090381622, 4.56194806098938, 4.510406255722046, 4.680397272109985, 4.491805136203766, 4.610861361026764, 4.331965744495392, 4.540400207042694, 4.395966053009033, 4.604711949825287, 4.587774455547333, 4.609967827796936, 4.514863729476929, 4.624908745288849, 4.607442378997803, 4.6711448431015015, 4.614675581455231, 4.5129770040512085, 4.569594621658325, 4.557766914367676, 4.616971135139465, 4.65557199716568, 4.599921524524689, 4.493215084075928, 4.499265968799591, 4.583366811275482, 4.521769642829895, 4.445435404777527, 4.735513210296631, 4.7152926325798035, 4.923087239265442, 4.72062212228775, 4.68700647354126, 5.044317841529846, 5.035445928573608, 4.92693430185318, 4.982259750366211, 5.125972509384155, 4.961256623268127, 4.882873713970184, 5.070456802845001, 4.967375457286835, 5.125199019908905, 5.1130757331848145, 5.073524713516235, 5.221239686012268, 5.07043981552124, 5.32084995508194, 5.112045168876648, 5.130359768867493, 5.152942717075348, 5.009399831295013, 4.996247112751007, 5.07606714963913, 5.156163513660431, 5.124166190624237, 5.132265746593475, 5.127921521663666, 5.258828103542328, 5.149291574954987, 5.2565314173698425, 5.264358043670654, 5.28046315908432, 5.033243238925934, 5.377786934375763, 5.197592198848724, 5.306201219558716, 5.199267148971558, 5.2040756940841675, 5.3319438099861145, 5.144103646278381, 5.176171183586121, 5.1741191148757935, 5.155643701553345, 5.33317369222641, 5.1171640157699585, 5.079234719276428, 5.026105165481567, 5.1855549812316895, 5.068077445030212];[0.26990170106291766, 0.3018683351576328, 0.2811497457325458, 0.23049414977431296, 0.240078467130661, 0.25883707925677296, 0.27381692826747894, 0.2623870365321636, 0.29868774488568306, 0.14779218435287475, 0.2463573910295963, 0.24299180209636687, 0.3140467308461666, 0.2326104462146759, 0.23914433419704437, 0.29445578232407565, 0.26079264432191845, -2.9511528521776196, -4.85415875762701, -4.5287407547235485, -5.093134796619415, -4.987656565010547, -5.065066686272621, -4.9707810312509535, -4.969722095131874, -4.88399743437767, -4.921529155969619, -4.996784846484661, -5.013238696753978, -4.945824806392192, -4.953999415040016, -4.937625615298748, -4.938138064742088, -5.025904959440231, -4.987434062361717, -4.903648263216018, -4.928405937552451, -5.031561443209648, -4.975938302278518, -5.039528046548366, -5.007964816689491, -4.995319354534149, -4.93752791583538, -4.928470860421657, -4.966317111253738, -5.035933336615562, -4.89031638354063, -5.038898357748985, -4.989536806941032, -4.923155379295348, -4.994265460968017, -5.091050961613655, -5.081466329097747, -5.070344978570938, -5.0360688552260395, -5.136635640263557, -5.066849859058856, -5.012834031879901, -5.030535914003849, -5.052335500717163, -5.189629720151424, -5.138229717314243, -5.1545921713113785, -5.159718556702137, -5.442328436672687, -5.204890376329422, -5.1179416358470915, -5.169277976453304, -5.423387977480888, -5.414403408765793, -5.419998751580715, -6.317826564610004, -6.795465373992919, -6.177963794767856, -6.219078250229359, -6.172943933308124, -6.159225037693977, -6.129254624247551, -6.094503240287303, -6.144791360199451, -6.220957861840724, -6.104565654695033, -6.056263670325279, -6.09581556469202, -6.079086895287037, -5.976596376299858, -6.113030210137367, -5.999017457664013, -6.084312871098518, -6.157176500558853, -6.102517747879028, -6.28509913533926, -6.394502364099026, -6.320012511312961, -6.3348098829388615, -6.18708766400814, -6.2585444211959835, -6.349308483302593, -6.094820290803909, -6.290336456894874, -6.26364622414112, -6.281609058380127, -6.211296960711479, -6.250696948170662, -6.26732665747404, -6.19325974881649, -6.152393008768558, -6.1974866688251495, -6.261154572665691, -6.084578865766525, -6.239974589645862, -6.0021671622991555, -6.210100615024566, -6.103165085613727, -6.243136270344257, -6.0112298905849455, -6.13743490576744, -6.200766849517822, -5.9638494327664375, -6.139601942896842];[0.005709299992304295, 0.0192607999779284, 0.03627879999112338, 0.05321939999703318, 0.06947149999905378, 0.08765989996027201, 0.10239369998453185, 0.12063139997189865, 0.1375387999578379, 0.1533540000091307, 0.16972269996767864, 0.1878285999991931, 0.20188080001389608, 0.22073309996630996, 0.23693889996502548, 0.2541728999931365, 0.26959609996993095, 0.2866266999626532, 0.30122470000060275, 0.31996649998473004, 0.3350821000058204, 0.3543538000085391, 0.36864399997284636, 0.3858722999575548, 0.40259959996910766, 0.42013619997305796, 0.4353502999874763, 0.452414300001692, 0.46955469995737076, 0.48766290000639856, 0.5019507000106387, 0.5206455999868922, 0.5369183999719098, 0.5527278999798, 0.570727199956309, 0.5871368999942206, 0.6026543999905698, 0.6195884000044316, 0.6358063999796286, 0.6530078999930993, 0.6689979999791831, 0.6869083999772556, 0.7021582999732345, 0.7197216000058688, 0.7349839999806136, 0.7531832999666221, 0.7682584999711253, 0.7865467999945395, 0.8026501999702305, 0.8202901000040583, 0.8354803000111133, 0.8530589999863878, 0.8698488000081852, 0.8866398999816738, 0.9021733999834396, 0.9199189000064507, 0.9363150999997742, 0.9534027999616228, 0.9681732999742962, 0.9864905999857001, 1.0023461999953724, 1.0192885999567807, 1.0359748000046238, 1.053466000012122, 1.0685235999990255, 1.0856145999860018, 1.1036178999929689, 1.1205927999690175, 1.134464000002481, 1.1530554000055417, 1.1688587999669835, 1.1862060999847017, 1.2013279999955557, 1.2193262999644503, 1.2354091999586672, 1.252999699965585, 1.2688602000125684, 1.2866579999681562, 1.3032544999732636, 1.3196867000078782, 1.3367114000138827, 1.3525432999595068, 1.3678777999593876, 1.3869890999631025, 1.402673100004904, 1.420456199964974, 1.4347015999956056, 1.4555355999618769, 1.4702414000057615, 1.4861371999722905, 1.5016464999644086, 1.5226352000026964, 1.5347746000043117, 1.5526483999565244, 1.5689761000103317, 1.5856581999687478, 1.6032522000023164, 1.6200368999852799, 1.6348942999611609, 1.6526543999789283, 1.6704814999829978, 1.6864559999667108, 1.7014233999652788, 1.7190935999969952, 1.734697400010191, 1.7517988999607041, 1.7690197000047192, 1.7866906999843195, 1.8026915999944322, 1.8194697999861091, 1.8345569999655709, 1.8525784999947064, 1.8679617999587208, 1.8865269999951124, 1.9005149999866262, 1.919064299960155, 1.9354346999898553, 1.9519769999897107, 1.9683326999656856, 1.9876010000007227]
S04;15;0;0;1;False;3000;False;;8;111.57710006316812;eye;L;nan;nan;nan;nan;0.0025452999980188906;0.0026433999883010983;1685533775.8563306;1685533775.867656;1685533776.6227596;1685533777.1087666;1685533777.109767;1685533777.1119366;[];[];[]
S04;15;0;0;1;False;3000;True;;8;-175.2148249078343;eye;L;-7.881527632474899;-0.5363952666521072;-176.11;7.9;1.1350978999980725;1.1351449000067078;1685533777.6745055;1685533777.6839597;1685533778.4395933;1685533778.9403682;1685533781.9366848;1685533783.07229;[-3.2153238356113434, -0.48689237236976624, -0.613481342792511, -0.30281829833984375, -0.5657758414745331, -0.41425853967666626, -0.5708760023117065, -0.5089543759822845, -0.6696516275405884, -0.6183827519416809, -0.6067487001419067, -0.7535118162631989, -0.6538726687431335, -0.527109295129776, -0.38896214962005615, -0.4747430384159088, -0.6352590918540955, -0.6302240490913391, -0.720871239900589, -0.42383769154548645, -0.3622405230998993, -0.2873632311820984, -0.4640653729438782, -0.3420720398426056, -0.43362125754356384, -0.36415159702301025, -0.23063689470291138, -0.39570385217666626, -0.5048706233501434, -0.2748996317386627, -0.34247803688049316, -0.37412089109420776, -0.31001412868499756, -0.2198861837387085, -3.270390510559082, -7.560324519872665, -7.3573979139328, -7.763841152191162, -7.686274766921997, -7.68274649977684, -7.628118097782135, -7.610929191112518, -7.633007049560547, -7.551465630531311, -7.639303117990494, -7.744648873806, -7.693129152059555, -7.683097571134567, -7.725592494010925, -7.774795711040497, -7.852547258138657, -7.663234293460846, -7.769679129123688, -7.718621462583542, -7.820148468017578, -7.804438591003418, -7.7333472073078156, -7.840569496154785, -7.858260095119476, -7.7862712144851685, -7.813226133584976, -7.787031680345535, -7.8271597027778625, -7.753152161836624, -7.761130541563034, -7.853879064321518, -7.906089037656784, -7.881527632474899];[-0.2743741303682327, 0.46871002390980715, 0.3185361787676811, 0.31178325489163394, 0.3358441114425659, 0.4150115624070167, 0.3555283471941948, 0.2534056194126606, 0.19485842809081078, 0.18970840573310851, 0.150968362390995, 0.15296080112457275, 0.21676642969250678, 0.1490607015788555, 0.1519412599503994, 0.06524716839194297, 0.31343689709901806, 0.3714363411068916, 0.26602303236722946, 0.3365068919956684, 0.6815643779933452, 0.5556108601391315, 0.6044085904955864, 0.5937120750546455, 0.5608384117484092, 0.6018211305141449, 0.5241809427738189, 0.5145934738218784, 0.5538276873528957, 0.6066244773566722, 0.6700169317424297, 0.6673342935740947, 0.6770695723593234, 0.598170007020235, 0.2827803812921047, -0.16489904522895812, -0.09867708832025528, -0.15934026092290876, -0.05652544274926185, -0.2775925397872925, -0.16916630566120147, -0.20434000343084335, -0.2819890156388283, -0.2232565104961395, -0.23046736121177672, -0.2403160974383354, -0.2796019971370697, -0.3210832983255386, -0.32697489112615585, -0.31435905396938324, -0.3451242998242378, -0.17429269105196, -0.3687303811311722, -0.3671734929084778, -0.3789182290434837, -0.45912570655345913, -0.3707184076309204, -0.3281598910689354, -0.470983900129795, -0.39571119099855423, -0.42886786758899687, -0.45100341439247127, -0.4250922560691833, -0.31290427744388577, -0.515993097424507, -0.4993766248226165, -0.4242772534489631, -0.5363952666521072];[0.004516799992416054, 0.02004480001050979, 0.037988799973390996, 0.052227500011213124, 0.07194789999630302, 0.08676059998106211, 0.10479369998211041, 0.12002710002707317, 0.1371684999903664, 0.15331269998569041, 0.17233129998203367, 0.18922569998539984, 0.20338199997786433, 0.21967110002879053, 0.23822589998599142, 0.2537945000221953, 0.2714381000259891, 0.2875648000044748, 0.30417479999596253, 0.31997249997220933, 0.33779710001545027, 0.35432099999161437, 0.3716463000164367, 0.38821220002137125, 0.40509000001475215, 0.4213372999802232, 0.43841359997168183, 0.45338750001974404, 0.4709320000256412, 0.48766290000639856, 0.5049889999791048, 0.5203759000287391, 0.537823099992238, 0.5534126000129618, 0.5710725000244565, 0.5875918000238016, 0.6057625000248663, 0.6211126000271179, 0.6379746000166051, 0.654072700010147, 0.6714388999971561, 0.6879305000184104, 0.7039355000015348, 0.7200164999812841, 0.7405220000073314, 0.7539242000202648, 0.7709204999846406, 0.789000799995847, 0.8063009000034072, 0.8203906000126153, 0.8380694999941625, 0.8540933000040241, 0.8720045000081882, 0.8876059000031091, 0.9054518999764696, 0.9234684000257403, 0.9383287000237033, 0.9539617000264116, 0.9714643000042997, 0.9878304000012577, 1.0039954999811016, 1.0193938000011258, 1.0374101999914274, 1.0530139000038616, 1.0699150000000373, 1.086615799984429, 1.1030413000262342, 1.1188387000001967]
S04;16;0;0;1;False;3000;True;;8;174.5233730298497;eye;L;-7.969431936740875;1.1544137075543404;171.76;8.05;0.9817646999727003;0.9818549999617971;1685533783.8962631;1685533783.899805;1685533784.6558986;1685533785.153486;1685533788.1548622;1685533789.1374702;[-0.7563220858573914, -0.27450835704803467, -0.17409628629684448, -0.3360086977481842, -0.21447515487670898, -0.058544546365737915, 0.14830613136291504, 0.3563045859336853, 0.18750664591789246, 0.2561076879501343, 0.35598182678222656, 0.2224082350730896, 0.21116942167282104, 0.11706531047821045, 0.22904518246650696, 0.13220328092575073, 0.1643693447113037, -0.01574215292930603, 0.120146244764328, 0.029647409915924072, -0.07716944813728333, 0.18096992373466492, 0.16447296738624573, -0.059776127338409424, -5.018451809883118, -8.178892433643341, -7.5454979836940765, -8.034323513507843, -7.955704480409622, -8.023630559444427, -7.9349159598350525, -7.87246772646904, -7.881841331720352, -7.898000806570053, -7.836325496435165, -7.953132599592209, -7.854279965162277, -8.022361040115356, -7.999372661113739, -8.014191836118698, -8.088453620672226, -8.054417818784714, -8.033837109804153, -8.048695355653763, -8.12346675992012, -8.025124877691269, -8.022317439317703, -7.925021976232529, -8.001706719398499, -7.951032400131226, -7.9262694120407104, -7.9183482229709625, -7.777759999036789, -7.931102871894836, -7.828171014785767, -7.846572816371918, -7.8980245888233185, -7.978532612323761, -7.969431936740875];[-0.1718486286699772, 0.23184618428349493, 0.8446336068212985, 0.9419526726007461, 0.9122520357370376, 1.0977013751864433, 0.6169910207390785, 0.6950336672365665, 0.5794813603162765, 0.735520640015602, 0.7511352203786372, 0.6965911857783794, 0.6241873741149901, 0.46834097206592556, 0.643914471566677, 0.4412315770983696, 0.5364854022860527, 0.4457314252853393, 0.5083265259861945, 0.3205213688313961, 0.4132454082369804, 0.3644300289452076, 0.45816982761025427, 0.49311219826340674, 1.2707958295941353, 1.5732661195099353, 1.4146548226475715, 1.4432048119604586, 1.385091595351696, 1.3762696489691733, 1.3601293824613094, 1.37248552814126, 1.4528638221323489, 1.3480682261288166, 1.3919141694903372, 1.411582962423563, 1.351596437394619, 1.3409484565258025, 1.2119145691394806, 1.2622597329318523, 1.2470293320715427, 1.332661335915327, 1.4561068139970301, 1.2526936948299408, 1.3296137429773807, 1.293072883039713, 1.3380395337939262, 1.3285109996795654, 1.4042599149048327, 1.2688084334135055, 1.3104614965617656, 1.4423806697130201, 1.4242942929267883, 1.3565542124211787, 1.2812042891979216, 1.2337907396256922, 1.1839044481515884, 1.2153343655169009, 1.1544137075543404];[0.005291799956467003, 0.01885659998515621, 0.03616119996877387, 0.051769499958027154, 0.06915489997481927, 0.08594659995287657, 0.1043412999715656, 0.11882569995941594, 0.13825389998964965, 0.15253799996571615, 0.171454299998004, 0.18541629996616393, 0.20439749996876344, 0.2175783999846317, 0.23498389997985214, 0.2536458999966271, 0.26970279996749014, 0.28551999997580424, 0.30496739997761324, 0.31996150000486523, 0.3384817999904044, 0.35339309996925294, 0.3711883999640122, 0.3858267999603413, 0.40429899998707697, 0.4190918999956921, 0.43574119999539107, 0.4525024999747984, 0.47043559997109696, 0.4855917999520898, 0.5033903999719769, 0.5183010000037029, 0.5365041999612004, 0.5520620999741368, 0.5725492999772541, 0.5874184999847785, 0.6040359999751672, 0.6201536000007764, 0.6367199999513105, 0.6522617999580689, 0.6710261999978684, 0.686190499982331, 0.7034780999529175, 0.7191530999843962, 0.7373115999507718, 0.7532325999927707, 0.7699101999751292, 0.7849964000051841, 0.8020439999527298, 0.8193723000003956, 0.8389621999813244, 0.8528800999629311, 0.8704955999855883, 0.8856574999517761, 0.9033313999534585, 0.9191812999779359, 0.9361558999517001, 0.9513976000016555, 0.9704127999721095]
S04;17;0;0;1;False;1000;True;;8;166.5354340975712;eye;L;-7.379344403743744;1.86369731426239;165.83;7.61;0.9669243000098504;0.966996300034225;1685533789.8502963;1685533789.8673291;1685533790.6210995;1685533791.1233659;1685533792.104339;1685533793.071615;[-0.213516503572464, -0.15731903910636902, -0.29570457339286804, -0.4085513651371002, -0.22437366843223572, -0.32583895325660706, -0.3343745172023773, -0.28274211287498474, -0.21245139837265015, -0.28879979252815247, -0.2612287998199463, -0.2864895164966583, -0.36550208926200867, -0.3709969222545624, -0.29069727659225464, -0.28781622648239136, -0.4018034338951111, -0.2287563979625702, -0.23189792037010193, -0.2467476725578308, -0.5667367577552795, -5.201143682003021, -7.142658889293671, -7.094606846570969, -7.393252491950989, -7.3787175714969635, -7.5155119597911835, -7.445753514766693, -7.351313054561615, -7.368822455406189, -7.413952112197876, -7.325270920991898, -7.431725949048996, -7.3270613849163055, -7.39126044511795, -7.3158140778541565, -7.414011001586914, -7.367691665887833, -7.411511033773422, -7.4238460958004, -7.420008093118668, -7.479669839143753, -7.498303800821304, -7.503131598234177, -7.550541520118713, -7.4030813574790955, -7.310923993587494, -7.342411696910858, -7.359162896871567, -7.294196009635925, -7.259420692920685, -7.306598454713821, -7.386293917894363, -7.259267240762711, -7.44583335518837, -7.373790115118027, -7.291779845952988, -7.379344403743744];[0.9749315991997718, 0.8400521323084831, 0.851163712888956, 0.926043102890253, 0.7935229204595089, 0.6909753575921058, 0.6923756115138531, 0.8880370661616325, 0.6597865372896194, 0.6172983013093472, 0.7582282014191151, 0.7204998202621936, 0.6725350566208362, 0.5609468266367912, 0.6871909216046332, 0.5843953281641006, 0.7138039402663707, 0.6058911010622978, 0.7651799909770488, 0.724130143225193, 0.66938661262393, 1.6278577432036399, 2.2410589702427384, 2.0647886529564854, 2.076346184313297, 2.1144426718354223, 2.0844363301992415, 1.966749447584152, 2.012747300416231, 2.0277413316071033, 2.0428412564098832, 1.9706451348960399, 2.0554337717592714, 1.9841273456811903, 1.946059537678957, 2.020059947669506, 2.0075755320489406, 1.9939341656863687, 1.9646410301327704, 1.9875717245042324, 1.8857499741017818, 1.9170891255140303, 2.053267364948988, 1.9804796889424323, 1.870127199590206, 1.8839812986552713, 1.7796117983758448, 1.869234352558851, 1.717383228242397, 1.8382103607058524, 1.8355374924838541, 1.8387269072234629, 1.8165094189345836, 1.8400231584906577, 1.940925273299217, 1.8407833233475683, 1.8826157122850418, 1.86369731426239];[0.005510400049388409, 0.02055150002706796, 0.034637900011148304, 0.05413800000678748, 0.0690094000310637, 0.08661240001674742, 0.1043558000237681, 0.11995260004187003, 0.1362989000044763, 0.15381500002695248, 0.1684669000096619, 0.1876848000101745, 0.20220530004007742, 0.21963639999739826, 0.23649120004847646, 0.2534571000142023, 0.269950800051447, 0.2882587000494823, 0.3031458000186831, 0.32177530002081767, 0.33538600004976615, 0.35502210003323853, 0.36948819999815896, 0.38664590002736077, 0.40293430001474917, 0.421393700002227, 0.43614639999577776, 0.45470070000737906, 0.46907190000638366, 0.48685090005164966, 0.5034196000196971, 0.5205616000457667, 0.5366021000081673, 0.5541339000337757, 0.5691166000324301, 0.586844600038603, 0.6027665000292473, 0.6207653000019491, 0.6365029000444338, 0.6540220000315458, 0.6684726999956183, 0.6872874000109732, 0.7031277000205591, 0.7216174000059254, 0.7377616000012495, 0.7531115000019781, 0.7694999000523239, 0.7867108000209555, 0.8024093999993056, 0.8206935000489466, 0.8356966000283137, 0.8539696000516415, 0.868930900003761, 0.8882180000073276, 0.9046484000282362, 0.919586000032723, 0.9364465000107884, 0.9533396000042558]
