subj;trial;block;prior;kappa;ct;delay;fix;keypressed;R;T_Angle;resp_mod;choice_x;choice_y;init_resp_angle;choiceAngle;choiceR;RT;MT;ts_b;ts_f;ts_p;ts_d;ts_r;ts_e;m_pos_x;m_pos_y;m_clock
S05;0;0;0;1;False;3000;True;;8;120.71845790882757;drag;L;-3.968538;4.875633;129.14;6.29;2.579348100000061;2.579512399970554;1685538261.569371;1685538261.5768974;1685538262.3320444;1685538262.9992056;1685538266.0007222;1685538268.5803752;[0.0, 0.0, 0.0, 0.0, 0.0, 0.0, 0.0, 0.0, 0.0, 0.0, 0.0, 0.0, 0.0, 0.0, 0.0, 0.0, 0.0, 0.0, 0.0, 0.0, 0.0, 0.0, 0.0, 0.0, 0.0, 0.0, 0.0, 0.0, 0.0, 0.0, 0.0, 0.0, 0.0, 0.0, 0.0, 0.0, 0.0, 0.0, 0.0, 0.0, 0.0, 0.0, 0.0, 0.0, 0.0, 0.0, 0.0, 0.0, 0.0, 0.0, 0.0, 0.0, 0.0, 0.0, 0.0, 0.0, -0.53858733, -1.1905615, -1.4740285, -1.7008021, -1.9275757, -2.0409625, -2.211043, -2.2677362, -2.3244295, -2.381123, -2.4378164, -2.4378164, -2.466163, -2.466163, -2.4945097, -2.4945097, -2.4945097, -2.4945097, -2.4945097, -2.4945097, -2.4945097, -2.4945097, -2.4945097, -2.4945097, -2.5228565, -2.5512033, -2.6362433, -2.7212832, -3.0047503, -3.2031772, -3.2598708, -3.316564, -3.3449106, -3.4016042, -3.4016042, -3.4299507, -3.4582977, -3.4866443, -3.4866443, -3.514991, -3.5433376, -3.5433376, -3.5716846, -3.6000311, -3.6567245, -3.713418, -3.8268046, -3.8834982, -3.996885, -4.0535784, -4.166965, -4.2236586, -4.3086987, -4.337045, -4.3937387, -4.422086, -4.4504323, -4.4504323, -4.478779, -4.5071254, -4.5071254, -4.5071254, -4.478779, -4.478779, -4.478779, -4.4504323, -4.422086, -4.3937387, -4.365392, -4.2803516, -4.252005, -4.1953115, -4.1386185, -4.081925, -4.0535784, -4.025232, -3.996885, -3.968538, -3.968538, -3.968538, -3.968538, -3.968538, -3.968538, -3.968538, -3.968538, -3.968538, -3.968538, -3.968538, -3.968538, -3.968538, -3.968538, -3.968538, -3.968538, -3.968538, -3.968538, -3.968538, -3.968538, -3.968538];[0.0, 0.0, 0.0, 0.0, 0.0, 0.0, 0.0, 0.0, 0.0, 0.0, 0.0, 0.0, 0.0, 0.0, 0.0, 0.0, 0.0, 0.0, 0.0, 0.0, 0.0, 0.0, 0.0, 0.0, 0.0, 0.0, 0.0, 0.0, 0.0, 0.0, 0.0, 0.0, 0.0, 0.0, 0.0, 0.0, 0.0, 0.0, 0.0, 0.0, 0.0, 0.0, 0.0, 0.0, 0.0, 0.0, 0.0, 0.0, 0.0, 0.0, 0.0, 0.0, 0.0, 0.0, 0.0, 0.0, 0.19842692, 0.4535472, 0.6236274, 0.73701423, 0.87874776, 0.93544114, 1.0204812, 1.0488279, 1.1055214, 1.1338681, 1.1622148, 1.1622148, 1.1905615, 1.2189082, 1.2189082, 1.2189082, 1.2189082, 1.2472548, 1.2756016, 1.2756016, 1.2756016, 1.3039483, 1.332295, 1.332295, 1.3606416, 1.417335, 1.5590686, 1.7858423, 2.6362433, 3.8268046, 4.3086987, 4.5921655, 4.733899, 4.9039793, 4.9890194, 5.130753, 5.2724867, 5.32918, 5.41422, 5.5559535, 5.6409936, 5.75438, 5.896114, 6.0095005, 6.094541, 6.1228876, 6.1795807, 6.1795807, 6.1795807, 6.151234, 6.0661945, 5.9528074, 5.896114, 5.811074, 5.7260337, 5.6409936, 5.5843005, 5.4992604, 5.41422, 5.3858733, 5.32918, 5.2724867, 5.215793, 5.1591, 5.130753, 5.0740595, 5.045713, 5.017366, 4.9890194, 4.932326, 4.9039793, 4.875633, 4.847286, 4.847286, 4.847286, 4.847286, 4.847286, 4.875633, 4.875633, 4.875633, 4.875633, 4.875633, 4.875633, 4.875633, 4.875633, 4.875633, 4.875633, 4.875633, 4.875633, 4.875633, 4.875633, 4.875633, 4.875633, 4.875633, 4.875633, 4.875633, 4.875633, 4.875633];[0.011439100024290383, 0.02846040000440553, 0.05167700001038611, 0.06495179998455569, 0.08180679997894913, 0.09841679997043684, 0.11502430000109598, 0.1320304999826476, 0.14868560002651066, 0.16604599996935576, 0.18205499998293817, 0.19794440001714975, 0.21566149999853224, 0.23081470001488924, 0.24922030000016093, 0.26505180000094697, 0.2832792000262998, 0.2992476000217721, 0.31619749998208135, 0.3339126000064425, 0.3498167999787256, 0.36537229997338727, 0.3818635999923572, 0.39880269998684525, 0.4161868999945, 0.43175129999872297, 0.4506720000063069, 0.4649020999786444, 0.48195360001409426, 0.4975410000188276, 0.5157742999726906, 0.5310054000001401, 0.5488525999826379, 0.5645010999869555, 0.5811073000077158, 0.5978326000040397, 0.6165262999711558, 0.6319113000063226, 0.6484946999698877, 0.6653014000039548, 0.6816774000180885, 0.6975466000149027, 0.7152696999837644, 0.7320953999878839, 0.750710699998308, 0.7658583999727853, 0.7823880999931134, 0.7983205000055023, 0.8151558000245132, 0.8313197999959812, 0.8483912000083365, 0.8651415000203997, 0.8808467999915592, 0.8974026999785565, 0.9156161000137217, 0.9299614999908954, 0.9486943000229076, 0.9668110000202432, 0.981498199980706, 0.9981364000122994, 1.015046300017275, 1.0304767999914475, 1.0518012000247836, 1.063744899991434, 1.0816255999961868, 1.0986871999921277, 1.1148758999770507, 1.130579899996519, 1.1497255999711342, 1.1639521999750286, 1.1815063999965787, 1.1966595000121742, 1.2150618999730796, 1.2311850999831222, 1.2475435999804176, 1.2645642000134103, 1.2808923000120558, 1.2963457999867387, 1.3157262000022456, 1.3312410999787971, 1.3484390000230633, 1.3642835000064224, 1.3810059999814257, 1.3975709999795072, 1.4148098999867216, 1.430400000012014, 1.449453999986872, 1.465218500001356, 1.4816064999904484, 1.4987602999899536, 1.513401200005319, 1.5305775000015274, 1.548758800025098, 1.5639907000004314, 1.582737700024154, 1.5976963000139222, 1.6153074000030756, 1.6310953000211157, 1.6466548999887891, 1.6638411000021733, 1.6807841999689117, 1.6960959999705665, 1.7145701000117697, 1.7300954000093043, 1.7485091999988072, 1.7634299999917857, 1.781490000023041, 1.7987286999705248, 1.8141996000194922, 1.8297527999966405, 1.848440199973993, 1.8643805999890901, 1.882154699997045, 1.8972798999748193, 1.9140134999761358, 1.9313358999788761, 1.9489226000150666, 1.9642954000155441, 1.9845872999867424, 1.9977563999709673, 2.0145651000202633, 2.032174499996472, 2.0463786000036635, 2.0631545999785885, 2.080977300007362, 2.0967823999817483, 2.1145102999871597, 2.130411299993284, 2.148413699993398, 2.1641066999873146, 2.1815818999893963, 2.1979990000254475, 2.2139846999780275, 2.230035600019619, 2.2475360999815166, 2.2639946999843232, 2.2840170999988914, 2.2976582999690436, 2.31652250001207, 2.331171899975743, 2.349443799990695, 2.3644307000213303, 2.384572700015269, 2.397255700023379, 2.4151590000255965, 2.4318986000143923, 2.4483346000197344, 2.464931999973487, 2.481554900004994, 2.498394099995494, 2.5164762000204064, 2.531055799976457, 2.548086000024341, 2.5649807999725454]
S05;1;0;0;1;False;1000;True;;8;1.6736951357298175;drag;L;7.3701425;-0.1133868;-0.88;7.37;1.4984757999773137;1.4985637000063434;1685538269.402751;1685538269.4103758;1685538270.1639338;1685538270.6671925;1685538271.6474583;1685538273.1463852;[0.0, 0.0, 0.0, 0.0, 0.0, 0.0, 0.0, 0.0, 0.0, 0.0, 0.0, 0.0, 0.0, 0.0, 0.0, 0.0, 0.0, 0.0, 0.0, 0.0, 0.0, 0.0, 0.0, 0.0, 0.0, 0.0, 0.0, 0.0, 0.0, 0.0, 0.0, 0.0, 0.0, 0.0, 0.0, 0.0, 0.0, 0.0, 0.0, 0.0, 0.0, 0.1133868, 0.2551203, 0.42520052, 0.7086675, 0.87874776, 1.2756016, 1.6441087, 1.9275757, 2.4378164, 2.7496302, 3.0897903, 3.5716846, 3.8268046, 4.3086987, 4.620512, 4.960673, 5.1874466, 5.3858733, 5.6409936, 5.811074, 5.9528074, 6.094541, 6.292968, 6.378008, 6.5197415, 6.633128, 6.7465153, 6.9165955, 7.0016356, 7.086675, 7.2000623, 7.2567554, 7.313449, 7.341796, 7.3701425, 7.3701425, 7.3701425, 7.3701425, 7.3701425, 7.3701425, 7.3701425, 7.3701425, 7.3701425, 7.3701425, 7.3701425, 7.3701425, 7.3701425, 7.3701425, 7.3701425];[0.0, 0.0, 0.0, 0.0, 0.0, 0.0, 0.0, 0.0, 0.0, 0.0, 0.0, 0.0, 0.0, 0.0, 0.0, 0.0, 0.0, 0.0, 0.0, 0.0, 0.0, 0.0, 0.0, 0.0, 0.0, 0.0, 0.0, 0.0, 0.0, 0.0, 0.0, 0.0, 0.0, 0.0, 0.0, 0.0, 0.0, 0.0, 0.0, 0.0, 0.0, 0.0, 0.0, 0.0, 0.0, 0.0, -0.0283467, -0.0283467, -0.0283467, -0.0283467, -0.0283467, -0.0283467, -0.0850401, -0.1133868, -0.1133868, -0.1133868, -0.1133868, -0.1133868, -0.1133868, -0.1133868, -0.1133868, -0.1133868, -0.1133868, -0.1133868, -0.1133868, -0.1133868, -0.1133868, -0.1133868, -0.1133868, -0.1133868, -0.1133868, -0.1133868, -0.1133868, -0.1133868, -0.1133868, -0.1133868, -0.1133868, -0.1133868, -0.1133868, -0.1133868, -0.1133868, -0.1133868, -0.1133868, -0.1133868, -0.1133868, -0.1133868, -0.1133868, -0.1133868, -0.1133868, -0.1133868];[0.003373800020199269, 0.018509300018195063, 0.033280399977229536, 0.050646300020162016, 0.06692000001203269, 0.08438319998094812, 0.10106760001508519, 0.11840610002400354, 0.1339472000254318, 0.1522106999764219, 0.16826840001158416, 0.18598629999905825, 0.20030149997910485, 0.2193958000279963, 0.2347728000022471, 0.25283549999585375, 0.26761620002798736, 0.2849387999740429, 0.3020249999826774, 0.3178475999739021, 0.33398789999773726, 0.35176340001635253, 0.36807470000348985, 0.3850877999793738, 0.4010551000246778, 0.4182569999829866, 0.43439970002509654, 0.45214730000589043, 0.4679253000067547, 0.48460129997693, 0.5003756000078283, 0.5186317000188865, 0.5344738999847323, 0.5526596999843605, 0.5685470000025816, 0.5850160000263713, 0.6009369000094011, 0.6192478000302799, 0.634304000006523, 0.6510660999920219, 0.6691268000286072, 0.6849089000024833, 0.6998337000259198, 0.7183501999825239, 0.7333844000240788, 0.7515225000097416, 0.7704523000284098, 0.783534399990458, 0.8014225999941118, 0.8176302000065334, 0.8339959000004455, 0.8518381000030786, 0.8676248000119813, 0.8848037000279874, 0.9022218000027351, 0.9171672000084072, 0.9374409000156447, 0.9510561000206508, 0.9668990999925882, 0.9863599999807775, 0.9997208000277169, 1.0187238000216894, 1.034441300027538, 1.050851900014095, 1.065865800017491, 1.0842059000278823, 1.0996762000140734, 1.1168366000056267, 1.1347441999823786, 1.1512890000012703, 1.1676973000285216, 1.1838566000224091, 1.202393800020218, 1.218665599997621, 1.232835199974943, 1.2511589999776334, 1.266409299976658, 1.2847169999731705, 1.300993799988646, 1.318856899975799, 1.3340880000032485, 1.351789899985306, 1.3678467000136152, 1.3844569000066258, 1.4011426999932155, 1.418573800008744, 1.434730999986641, 1.4512764000101015, 1.467648999998346, 1.4840622000047006]
S05;2;0;0;1;False;3000;True;;8;-127.72581647906541;drag;L;-4.025232;-5.045713;-128.58;6.45;2.3334118999773636;2.333479500026442;1685538273.8482275;1685538273.860171;1685538274.6159391;1685538275.1165426;1685538278.115245;1685538280.4488761;[0.0, 0.0, 0.0, 0.0, 0.0, 0.0, 0.0, 0.0, 0.0, 0.0, 0.0, 0.0, 0.0, 0.0, 0.0, 0.0, 0.0, 0.0, 0.0, 0.0, 0.0, 0.0, 0.0, 0.0, 0.0, 0.0, 0.0, 0.0, 0.0, 0.0, 0.0, 0.0, 0.0, 0.0, 0.0, 0.0, 0.0, 0.0, 0.0, 0.0, 0.0, 0.0, 0.0, 0.0, 0.0, 0.0, 0.0, 0.0, 0.0, 0.0, 0.0, 0.0, 0.0, 0.0, 0.0, 0.0, 0.0, 0.0, 0.0, 0.0, 0.0, 0.0, 0.0, 0.0, 0.0, 0.0, 0.0, 0.0, 0.0, 0.0, 0.0, 0.0, 0.0, 0.0, 0.0, 0.0, 0.0, 0.0, -0.14173351, -0.36850712, -0.6236274, -0.9921345, -1.2756016, -1.5874153, -1.8425356, -2.2393894, -2.6078966, -2.8630168, -3.1181371, -3.316564, -3.5433376, -3.713418, -3.8268046, -3.9401915, -4.025232, -4.1386185, -4.1953115, -4.2803516, -4.3937387, -4.4504323, -4.5071254, -4.5354724, -4.563819, -4.563819, -4.563819, -4.563819, -4.563819, -4.5354724, -4.5071254, -4.478779, -4.4504323, -4.422086, -4.365392, -4.337045, -4.2803516, -4.252005, -4.1953115, -4.166965, -4.1386185, -4.110272, -4.0535784, -4.0535784, -4.025232, -4.025232, -4.025232, -4.025232, -4.025232, -4.025232, -4.025232, -4.025232, -4.025232, -4.025232, -4.025232, -4.025232, -4.025232, -4.025232, -4.025232, -4.025232, -4.025232, -4.025232];[0.0, 0.0, 0.0, 0.0, 0.0, 0.0, 0.0, 0.0, 0.0, 0.0, 0.0, 0.0, 0.0, 0.0, 0.0, 0.0, 0.0, 0.0, 0.0, 0.0, 0.0, 0.0, 0.0, 0.0, 0.0, 0.0, 0.0, 0.0, 0.0, 0.0, 0.0, 0.0, 0.0, 0.0, 0.0, 0.0, 0.0, 0.0, 0.0, 0.0, 0.0, 0.0, 0.0, 0.0, 0.0, 0.0, 0.0, 0.0, 0.0, 0.0, 0.0, 0.0, 0.0, 0.0, 0.0, 0.0, 0.0, 0.0, 0.0, 0.0, 0.0, 0.0, 0.0, 0.0, 0.0, 0.0, 0.0, 0.0, 0.0, 0.0, 0.0, 0.0, 0.0, 0.0, 0.0, 0.0, 0.0, -0.0283467, -0.19842692, -0.4535472, -0.6803208, -1.1338681, -1.417335, -1.7291489, -2.012616, -2.4094696, -2.7779768, -3.0330973, -3.2882173, -3.5716846, -3.9401915, -4.166965, -4.365392, -4.5921655, -4.7055526, -4.847286, -4.932326, -5.017366, -5.1024065, -5.1591, -5.215793, -5.2441397, -5.2724867, -5.300833, -5.32918, -5.3575263, -5.3575263, -5.3575263, -5.3575263, -5.3575263, -5.32918, -5.32918, -5.300833, -5.300833, -5.2724867, -5.215793, -5.1874466, -5.1591, -5.130753, -5.1024065, -5.0740595, -5.0740595, -5.045713, -5.045713, -5.045713, -5.045713, -5.045713, -5.045713, -5.045713, -5.045713, -5.045713, -5.045713, -5.045713, -5.045713, -5.045713, -5.045713, -5.045713, -5.045713, -5.045713, -5.045713];[0.005142399983014911, 0.0172269000322558, 0.03470989997731522, 0.05093790002865717, 0.06838280003285035, 0.08478179998928681, 0.10253340000053868, 0.11794199998257682, 0.13580029999138787, 0.1509024000260979, 0.16866169997956604, 0.18480480002472177, 0.2002702000318095, 0.21715829998720437, 0.23545660002855584, 0.25074109999695793, 0.26937970001017675, 0.2844903999939561, 0.3015587999834679, 0.3168978000176139, 0.33586560003459454, 0.35117799998261034, 0.36911810003221035, 0.3842531000263989, 0.4025711999856867, 0.41720740002347156, 0.4352072000037879, 0.45083879999583587, 0.46739519998664036, 0.4833722999901511, 0.5010500000207685, 0.5186384000116959, 0.5350157999782823, 0.5501634000102058, 0.5687695000087842, 0.582297999993898, 0.6018095000181347, 0.6196556999930181, 0.6341262999922037, 0.6494626000057906, 0.6678485000156797, 0.6842327000340447, 0.7009968000347726, 0.717393999977503, 0.7355599000002258, 0.7507503000088036, 0.7692598000285216, 0.7846323000267148, 0.8020858999807388, 0.8180852999794297, 0.8356762999901548, 0.8517817999818362, 0.869736600026954, 0.8845342000131495, 0.9018221999867819, 0.9179881000309251, 0.9355012000305578, 0.9523314000107348, 0.9682662999839522, 0.9844363000011072, 1.0018815000075847, 1.0174701000214554, 1.034648799977731, 1.0510936999926344, 1.0681938999914564, 1.0845223999931477, 1.1029762999969535, 1.117135300009977, 1.1355412999982946, 1.1506154999951832, 1.1682574999867938, 1.1839243000140414, 1.2007938000024296, 1.2172041999874637, 1.234318200033158, 1.2513043999788351, 1.2683964000316337, 1.2854031000169925, 1.3022942999959923, 1.3169121000100859, 1.334328800032381, 1.3522289000102319, 1.3666153000085615, 1.3856412000022829, 1.3993341000168584, 1.415770000021439, 1.437258300022222, 1.450067099998705, 1.4684111999813467, 1.4838421000167727, 1.5012343000271358, 1.5187090000254102, 1.5332264000317082, 1.549410399980843, 1.568123100034427, 1.5836412999778986, 1.6017535999999382, 1.6164483000175096, 1.634145800024271, 1.6502286000177264, 1.6684892000048421, 1.6827974999905564, 1.7026065000100061, 1.7167185000143945, 1.7352775000035763, 1.7506276000058278, 1.767322100000456, 1.783810299995821, 1.8013739000307396, 1.8163487000274472, 1.8341647000052035, 1.8494388000108302, 1.8671912000281736, 1.8843238999834284, 1.9012171999784186, 1.916752399993129, 1.934711600013543, 1.9494011999922805, 1.9681076999986544, 1.9841595999896526, 2.001023599994369, 2.0178720999974757, 2.0335832000127994, 2.050435399985872, 2.067765199986752, 2.083387800026685, 2.1021498999907635, 2.1170039999997243, 2.1346486000111327, 2.1510544000193477, 2.168769899988547, 2.1841379000106826, 2.2015932999784127, 2.2168975999811664, 2.234535700001288, 2.2502760000061244, 2.267703999998048, 2.2847312000230886, 2.300369900010992, 2.3163729999796487]
S05;3;0;0;1;False;1000;True;;8;30.366926378554403;drag;L;4.762246;3.0330973;32.49;5.65;2.213214300049003;2.2133089000126347;1685538281.2870095;1685538281.2931674;1685538282.0490947;1685538282.5496285;1685538283.5314312;1685538285.7447212;[0.0, 0.0, 0.0, 0.0, 0.0, 0.0, 0.0, 0.0, 0.0, 0.0, 0.0, 0.0, 0.0, 0.0, 0.0, 0.0, 0.0, 0.0, 0.0, 0.0, 0.0, 0.0, 0.0, 0.0, 0.0, 0.0, 0.0, 0.0, 0.0, 0.0, 0.0, 0.0, 0.0, 0.0, 0.0, 0.0, 0.0, 0.0, 0.0, 0.0, 0.0, 0.0, 0.0, 0.0, 0.0, 0.0, 0.0, 0.0, 0.0, 0.0, 0.0, 0.0, 0.0, 0.0, 0.0, 0.0, 0.0, 0.0, 0.0, 0.0, 0.0, 0.0, 0.0, 0.0, 0.0, 0.0, 0.0, 0.0, 0.0, 0.0, 0.0, 0.0, 0.0, 0.0, 0.0, 0.0, 0.0, 0.0, 0.0566934, 0.0850401, 0.28346702, 0.4535472, 0.6803208, 0.79370767, 0.9070944, 1.1055214, 1.2472548, 1.3889884, 1.5590686, 1.7291489, 1.984269, 2.182696, 2.3527763, 2.6078966, 2.7496302, 2.8913634, 2.9764037, 3.0897903, 3.2598708, 3.3732576, 3.4866443, 3.6567245, 3.7417645, 3.911845, 4.025232, 4.110272, 4.2236586, 4.3086987, 4.365392, 4.422086, 4.4504323, 4.4504323, 4.5071254, 4.5354724, 4.563819, 4.648859, 4.6772056, 4.7055526, 4.733899, 4.762246, 4.762246, 4.762246, 4.762246, 4.762246, 4.762246, 4.762246, 4.762246, 4.762246, 4.762246, 4.762246, 4.762246, 4.762246];[0.0, 0.0, 0.0, 0.0, 0.0, 0.0, 0.0, 0.0, 0.0, 0.0, 0.0, 0.0, 0.0, 0.0, 0.0, 0.0, 0.0, 0.0, 0.0, 0.0, 0.0, 0.0, 0.0, 0.0, 0.0, 0.0, 0.0, 0.0, 0.0, 0.0, 0.0, 0.0, 0.0, 0.0, 0.0, 0.0, 0.0, 0.0, 0.0, 0.0, 0.0, 0.0, 0.0, 0.0, 0.0, 0.0, 0.0, 0.0, 0.0, 0.0, 0.0, 0.0, 0.0, 0.0, 0.0, 0.0, 0.0, 0.0, 0.0, 0.0, 0.0, 0.0, 0.0, 0.0, 0.0, 0.0, 0.0, 0.0, 0.0, 0.0, 0.0, 0.0, 0.0, 0.0, 0.0, 0.0, 0.0, 0.0, 0.0566934, 0.1133868, 0.2267736, 0.3401604, 0.48189393, 0.56693405, 0.65197414, 0.8220543, 0.9070944, 0.9921345, 1.1055214, 1.1905615, 1.3889884, 1.5023751, 1.6157619, 1.7574955, 1.8708823, 1.9559225, 2.0409625, 2.0976558, 2.211043, 2.2677362, 2.3527763, 2.4378164, 2.466163, 2.5512033, 2.6078966, 2.6362433, 2.7212832, 2.7779768, 2.8063235, 2.8630168, 2.8630168, 2.8630168, 2.8913634, 2.9197102, 2.9197102, 2.948057, 2.948057, 2.9764037, 3.0047503, 3.0047503, 3.0330973, 3.0330973, 3.0330973, 3.0330973, 3.0330973, 3.0330973, 3.0330973, 3.0330973, 3.0330973, 3.0330973, 3.0330973, 3.0330973];[0.005232299969065934, 0.03286829998251051, 0.0511689999839291, 0.06751179997809231, 0.08515629998873919, 0.10125740000512451, 0.118540600000415, 0.13393819995690137, 0.15079549996880814, 0.1675112000084482, 0.1840813999879174, 0.19901779998326674, 0.21589519997360185, 0.23316259996499866, 0.25081880000652745, 0.2661936999647878, 0.28417599998647347, 0.2999648000113666, 0.31910049996804446, 0.33344710001256317, 0.35026619996642694, 0.3669497999944724, 0.38443629996618256, 0.39938179997261614, 0.41866709996247664, 0.43345849995967, 0.4515276000020094, 0.4663299999665469, 0.4848016999894753, 0.5001285999896936, 0.5185686000040732, 0.5337934999843128, 0.5521104999934323, 0.567541699972935, 0.584487599960994, 0.6002415000111796, 0.6170319999800995, 0.6336039999732748, 0.6509658999857493, 0.6671704999753274, 0.6841453000088222, 0.7000095999683253, 0.7184537999564782, 0.733706799976062, 0.7516124999965541, 0.7664207000052556, 0.7841968999709934, 0.8006676000077277, 0.8175069999997504, 0.833976799971424, 0.852097800001502, 0.866028499964159, 0.8847050999756902, 0.9007273999741301, 0.9178097000112757, 0.9328601000015624, 0.9513958999887109, 0.9676663999562152, 0.9852246000082232, 1.0010094000026584, 1.0180390999885276, 1.0343155000009574, 1.0511985999764875, 1.0667856999789365, 1.0845960999722593, 1.099732699978631, 1.11811789998319, 1.1334288999787532, 1.15193089999957, 1.1670341999852099, 1.1847843999858014, 1.2012057999963872, 1.2164791999966837, 1.233079399971757, 1.2512788999592885, 1.2661204999894835, 1.285392599995248, 1.3008276000036858, 1.3169253999949433, 1.334383399982471, 1.349625399976503, 1.3669318999745883, 1.3855377999716438, 1.399571499961894, 1.4171619999688119, 1.434283999959007, 1.4502797999884933, 1.468382199993357, 1.4841876999707893, 1.4996904999716207, 1.5196885999757797, 1.532589599955827, 1.550884899974335, 1.5672370999818668, 1.5827583000063896, 1.6032173999701627, 1.617295700008981, 1.6330125000094995, 1.651880599965807, 1.6661591999582015, 1.6832679999643005, 1.7014900000067428, 1.7178314999910071, 1.736389399971813, 1.7505179999861866, 1.7665091999806464, 1.7863622999866493, 1.8004373000003397, 1.8167519999551587, 1.8349694999633357, 1.8500175999943167, 1.866905000002589, 1.8837747999932617, 1.9012807999970391, 1.9173491999972612, 1.9327998000080697, 1.952465599984862, 1.9664750999654643, 1.9840426999726333, 1.9992333999834955, 2.01718039996922, 2.0331141999922693, 2.0514313000021502, 2.0669649000046775, 2.084117199992761, 2.097871200006921, 2.114967899979092, 2.130973399966024, 2.1479722000076436, 2.165069399983622, 2.182066799956374, 2.1972641999600455]
S05;4;0;0;1;False;3000;True;;8;6.700092401281448;drag;L;6.292968;1.6724553;14.88;6.51;1.566532399971038;1.566651200002525;1685538286.5148275;1685538286.5258462;1685538287.2794764;1685538287.7817454;1685538290.781411;1685538292.347835;[0.0, 0.0, 0.0, 0.0, 0.0, 0.0, 0.0, 0.0, 0.0, 0.0, 0.0, 0.0, 0.0, 0.0, 0.0, 0.0, 0.0, 0.0, 0.0, 0.0, 0.0, 0.0, 0.0, 0.0, 0.0, 0.0, 0.0, 0.0, 0.0, 0.0, 0.0, 0.0, 0.0, 0.0, 0.0, 0.0, 0.0, 0.0, 0.0, 0.0, 0.0, 0.2551203, 0.7086675, 1.0488279, 1.3606416, 1.8141888, 2.0976558, 2.4094696, 2.8063235, 3.0897903, 3.4866443, 3.713418, 3.996885, 4.422086, 4.5921655, 4.733899, 4.875633, 4.960673, 5.045713, 5.1024065, 5.1591, 5.2724867, 5.300833, 5.3858733, 5.4709134, 5.5559535, 5.66934, 5.697687, 5.782727, 5.8677673, 5.924461, 5.9528074, 6.0095005, 6.0661945, 6.094541, 6.151234, 6.151234, 6.1795807, 6.2079277, 6.2362742, 6.264621, 6.292968, 6.292968, 6.292968, 6.292968, 6.292968, 6.292968, 6.292968, 6.292968, 6.292968, 6.292968, 6.292968, 6.292968, 6.292968];[0.0, 0.0, 0.0, 0.0, 0.0, 0.0, 0.0, 0.0, 0.0, 0.0, 0.0, 0.0, 0.0, 0.0, 0.0, 0.0, 0.0, 0.0, 0.0, 0.0, 0.0, 0.0, 0.0, 0.0, 0.0, 0.0, 0.0, 0.0, 0.0, 0.0, 0.0, 0.0, 0.0, 0.0, 0.0, 0.0, 0.0, 0.0, 0.0, 0.0, 0.0, 0.0850401, 0.1700802, 0.2551203, 0.3118137, 0.42520052, 0.48189393, 0.53858733, 0.6236274, 0.7086675, 0.79370767, 0.85040104, 0.9070944, 0.9921345, 0.9921345, 1.0204812, 1.0488279, 1.0771747, 1.1055214, 1.1338681, 1.1622148, 1.2189082, 1.2189082, 1.2472548, 1.3039483, 1.332295, 1.3889884, 1.417335, 1.417335, 1.4456817, 1.4740285, 1.5023751, 1.5023751, 1.5307219, 1.5590686, 1.5590686, 1.5874153, 1.5874153, 1.6157619, 1.6157619, 1.6441087, 1.6724553, 1.6724553, 1.6724553, 1.6724553, 1.6724553, 1.6724553, 1.6724553, 1.6724553, 1.6724553, 1.6724553, 1.6724553, 1.6724553, 1.6724553];[0.004567099967971444, 0.017347499961033463, 0.0353571999585256, 0.05024099996080622, 0.06835439999122173, 0.08387229999061674, 0.10182839998742566, 0.11707879998721182, 0.13482539996039122, 0.1513344999984838, 0.16918789996998385, 0.18428879999555647, 0.20093689998611808, 0.2175765999709256, 0.23484230000758544, 0.25066849996801466, 0.26780549995601177, 0.2832814999856055, 0.3016957999789156, 0.3168267000000924, 0.33491109998431057, 0.35045979998540133, 0.368695100012701, 0.3846927999984473, 0.40186579996952787, 0.41849299997556955, 0.4345188000006601, 0.45058229996357113, 0.46828639996238053, 0.48337929998524487, 0.5029020999791101, 0.5183519999845885, 0.5357362999930046, 0.5505065000033937, 0.5671634000027552, 0.5843588999705389, 0.6015947999549098, 0.6167936999700032, 0.6352435000007972, 0.6495940999593586, 0.6688224999816157, 0.6840317999594845, 0.7019974999711849, 0.7170356999849901, 0.7362322999979369, 0.7514275999856181, 0.7692505999584682, 0.7830658999737352, 0.8015295999939553, 0.8172646999591962, 0.8361942999763414, 0.8506065999972634, 0.8674315999960527, 0.8841030999901704, 0.9013927999767475, 0.916675699991174, 0.93418159999419, 0.9504823999595828, 0.9683656999841332, 0.9837811999605037, 1.0032933999900706, 1.0186565999756567, 1.033975799975451, 1.0502332999603823, 1.0676221000030637, 1.0830564000061713, 1.1029383999994025, 1.1162209999747574, 1.1336516999872401, 1.1517079999903217, 1.1684929999755695, 1.183940899965819, 1.2013644999824464, 1.2167439999757335, 1.2348322999896482, 1.2501655999803916, 1.2698656999855302, 1.2831738999811932, 1.301086999999825, 1.3177035999833606, 1.334144699969329, 1.3504515999811701, 1.3673452999792062, 1.3843366999644786, 1.4009466999559663, 1.4170817999984138, 1.434693299990613, 1.4502337999874726, 1.4675769999739714, 1.4841879999730736, 1.5031357000116259, 1.51705669995863, 1.53444869996747, 1.5506796999834478]
S05;5;0;0;1;False;1000;True;;8;64.04450657753203;drag;L;2.2393894;5.41422;67.53;5.86;1.699172599997837;1.6992742999573238;1685538293.147924;1685538293.1597059;1685538293.9157436;1685538294.4158726;1685538295.3969874;1685538297.096234;[0.0, 0.0, 0.0, 0.0, 0.0, 0.0, 0.0, 0.0, 0.0, 0.0, 0.0, 0.0, 0.0, 0.0, 0.0, 0.0, 0.0, 0.0, 0.0, 0.0, 0.0, 0.0, 0.0, 0.0, 0.0, 0.0, 0.0, 0.0, 0.0, 0.0, 0.0, 0.0, 0.0, 0.0, 0.0, 0.0, 0.0, 0.0, 0.0, 0.0, 0.0, 0.0, 0.0, 0.0, 0.0, 0.0, 0.14173351, 0.3401604, 0.5102406, 0.79370767, 0.96378785, 1.1338681, 1.2756016, 1.3606416, 1.417335, 1.4740285, 1.5023751, 1.6157619, 1.6724553, 1.7291489, 1.8425356, 1.8708823, 1.9275757, 1.9559225, 1.984269, 2.0409625, 2.0693092, 2.0976558, 2.182696, 2.211043, 2.2960827, 2.3244295, 2.3527763, 2.381123, 2.381123, 2.381123, 2.381123, 2.381123, 2.381123, 2.381123, 2.381123, 2.381123, 2.381123, 2.381123, 2.381123, 2.381123, 2.381123, 2.3244295, 2.3244295, 2.2960827, 2.2677362, 2.2677362, 2.2393894, 2.2393894, 2.2393894, 2.2393894, 2.2393894, 2.2393894, 2.2393894, 2.2393894, 2.2393894, 2.2393894];[0.0, 0.0, 0.0, 0.0, 0.0, 0.0, 0.0, 0.0, 0.0, 0.0, 0.0, 0.0, 0.0, 0.0, 0.0, 0.0, 0.0, 0.0, 0.0, 0.0, 0.0, 0.0, 0.0, 0.0, 0.0, 0.0, 0.0, 0.0, 0.0, 0.0, 0.0, 0.0, 0.0, 0.0, 0.0, 0.0, 0.0, 0.0, 0.0, 0.0, 0.0, 0.0, 0.0, 0.0, 0.0, 0.0, 0.28346702, 0.73701423, 1.0488279, 1.5307219, 1.8708823, 2.182696, 2.4378164, 2.5512033, 2.66459, 2.7779768, 2.8630168, 3.0047503, 3.1181371, 3.2882173, 3.4866443, 3.5716846, 3.6567245, 3.7417645, 3.8268046, 3.9401915, 4.025232, 4.110272, 4.252005, 4.3937387, 4.5354724, 4.620512, 4.733899, 4.847286, 4.9039793, 4.960673, 4.9890194, 5.045713, 5.1024065, 5.1591, 5.1874466, 5.215793, 5.2441397, 5.2724867, 5.300833, 5.3575263, 5.3575263, 5.3858733, 5.41422, 5.41422, 5.41422, 5.41422, 5.41422, 5.41422, 5.41422, 5.41422, 5.41422, 5.41422, 5.41422, 5.41422, 5.41422, 5.41422];[0.004583799978718162, 0.01955729996552691, 0.03459519997704774, 0.05293040000833571, 0.06806899997172877, 0.08521900000050664, 0.10135129996342584, 0.11958429997321218, 0.13388370000757277, 0.15217590000247583, 0.16799289995105937, 0.18611969996709377, 0.20006879995344207, 0.2173219999531284, 0.23439719999441877, 0.2507991999736987, 0.2678402999881655, 0.28551560000050813, 0.30122309998841956, 0.31969079998089, 0.3348360999953002, 0.35161929996684194, 0.366570399957709, 0.3864134000032209, 0.4003526999731548, 0.4159397999756038, 0.4339577999780886, 0.4517521999659948, 0.46710809995420277, 0.4861825999687426, 0.5011794999591075, 0.5183541000005789, 0.5332534000044689, 0.5516180999693461, 0.5676447000005282, 0.5850065999547951, 0.6020659999921918, 0.6193567999871448, 0.634247999987565, 0.6523490999825299, 0.6671364000067115, 0.6841274999896996, 0.7003812000039034, 0.7187646999955177, 0.7344711999758147, 0.7515765999560244, 0.7688780999742448, 0.7844730999786407, 0.8005017999676056, 0.8190888999961317, 0.8328710999921896, 0.8526381999836303, 0.8681114999926649, 0.8848820999846794, 0.8996046999818645, 0.9179130999837071, 0.933942899981048, 0.9523057999904267, 0.9681935999542475, 0.985373499977868, 1.00152099999832, 1.018052399973385, 1.0342946999589913, 1.0508434000075795, 1.0662981999921612, 1.08490640000673, 1.0999745999579318, 1.1172681999742053, 1.1348585999803618, 1.1523954999865964, 1.1688743999693543, 1.1835860999999568, 1.2005073999753222, 1.2180539999972098, 1.2330084999557585, 1.2517345999949612, 1.266566399950534, 1.2849184999940917, 1.3000311999931, 1.3173691999982111, 1.3341119999531657, 1.3521698999684304, 1.3665528999990784, 1.3835453999927267, 1.3995513999834657, 1.4164257999509573, 1.4347385999863036, 1.4509487999603152, 1.4668991999933496, 1.4836273999535479, 1.4995934999897145, 1.5181004999903962, 1.533127799979411, 1.5513941999524832, 1.5679108999902382, 1.585724400007166, 1.6005365999881178, 1.6185287999687716, 1.6341448999592103, 1.6515256999991834, 1.6675532999797724, 1.6836256999522448]
S05;6;0;0;1;False;1000;True;;8;45.802546596104484;drag;L;5.017366;4.7905927;43.68;6.94;1.4317398000275716;1.4318288000067696;1685538297.959479;1685538297.9761455;1685538298.7302227;1685538299.2316966;1685538300.213053;1685538301.6446693;[0.0, 0.0, 0.0, 0.0, 0.0, 0.0, 0.0, 0.0, 0.0, 0.0, 0.0, 0.0, 0.0, 0.0, 0.0, 0.0, 0.0, 0.0, 0.0, 0.0, 0.0, 0.0, 0.0, 0.0, 0.0, 0.0, 0.0, 0.0, 0.0, 0.0, 0.0, 0.0, 0.0, 0.0, 0.0, 0.0, 0.0, 0.0, 0.0, 0.0, 0.0, 0.0, 0.36850712, 0.6803208, 1.1622148, 1.4456817, 1.7291489, 2.0693092, 2.2960827, 2.4378164, 2.6078966, 2.7212832, 2.8630168, 3.0614438, 3.1748307, 3.4016042, 3.5433376, 3.713418, 3.8551514, 3.996885, 4.0535784, 4.166965, 4.252005, 4.337045, 4.3937387, 4.478779, 4.563819, 4.648859, 4.7055526, 4.847286, 4.9039793, 4.960673, 5.017366, 5.017366, 5.017366, 5.017366, 5.017366, 5.017366, 5.017366, 5.017366, 5.017366, 5.017366, 5.017366, 5.017366, 5.017366, 5.017366];[0.0, 0.0, 0.0, 0.0, 0.0, 0.0, 0.0, 0.0, 0.0, 0.0, 0.0, 0.0, 0.0, 0.0, 0.0, 0.0, 0.0, 0.0, 0.0, 0.0, 0.0, 0.0, 0.0, 0.0, 0.0, 0.0, 0.0, 0.0, 0.0, 0.0, 0.0, 0.0, 0.0, 0.0, 0.0, 0.0, 0.0, 0.0, 0.0, 0.0, 0.0, 0.0, 0.36850712, 0.65197414, 1.1338681, 1.417335, 1.6724553, 2.0409625, 2.2393894, 2.4094696, 2.57955, 2.66459, 2.7779768, 2.948057, 3.0897903, 3.2598708, 3.3732576, 3.514991, 3.6283777, 3.770111, 3.8551514, 3.9401915, 4.025232, 4.110272, 4.166965, 4.2236586, 4.2803516, 4.365392, 4.422086, 4.5354724, 4.620512, 4.7055526, 4.733899, 4.762246, 4.7905927, 4.7905927, 4.7905927, 4.7905927, 4.7905927, 4.7905927, 4.7905927, 4.7905927, 4.7905927, 4.7905927, 4.7905927, 4.7905927];[0.004758600029163063, 0.019495800021104515, 0.03486979997251183, 0.05213000002549961, 0.06770499999402091, 0.08512469998095185, 0.09977359999902546, 0.11734459997387603, 0.13420580001547933, 0.1516954000107944, 0.16783400002168491, 0.18599269998958334, 0.20023880002554506, 0.21869349997723475, 0.2346743000089191, 0.25290490000043064, 0.2672415000270121, 0.28648080001585186, 0.3014520999859087, 0.31888530001742765, 0.334837400005199, 0.35286210000049323, 0.3679982000030577, 0.38730310002574697, 0.40122790000168607, 0.41934810002567247, 0.43449860002147034, 0.45215889997780323, 0.4671480000251904, 0.4861562000005506, 0.5018150000250898, 0.5198705000220798, 0.534643099992536, 0.552860600000713, 0.5688280999893323, 0.585846500005573, 0.6013367000268772, 0.6183517000172287, 0.6355172999901697, 0.6507458999985829, 0.6676666000275873, 0.6848855999996886, 0.7005056000198238, 0.7179121000226587, 0.7357340999878943, 0.7512111000251025, 0.767012300028, 0.7854127999744378, 0.8005410999758169, 0.8187536000041291, 0.8346926000085659, 0.8537130000186153, 0.8681284000049345, 0.8844739000196569, 0.9004483000026084, 0.9178953000227921, 0.9334106000023894, 0.955122500017751, 0.9670926000108011, 0.9847917999722995, 1.0018406999879517, 1.0176436000037938, 1.0343498999718577, 1.0510013999883085, 1.0664434999926016, 1.084930400014855, 1.1002667000284418, 1.1180376000120305, 1.1329894000082277, 1.1506647000205703, 1.167388600006234, 1.18520130001707, 1.1992612999747507, 1.2181111000245437, 1.2330247000209056, 1.251504699990619, 1.2667825000244193, 1.284378700016532, 1.3007043999969028, 1.3179315999732353, 1.3339821000117809, 1.3530890999827534, 1.3665518999914639, 1.3837118999799713, 1.3998538000159897, 1.417233699990902]
S05;7;0;0;1;False;3000;True;;8;16.445914636612212;drag;L;6.321315;3.0047503;25.42;7.0;1.4983635999960825;1.498432899999898;1685538302.4665248;1685538302.4763234;1685538303.2299778;1685538303.7320063;1685538306.730239;1685538308.228103;[0.0, 0.0, 0.0, 0.0, 0.0, 0.0, 0.0, 0.0, 0.0, 0.0, 0.0, 0.0, 0.0, 0.0, 0.0, 0.0, 0.0, 0.0, 0.0, 0.0, 0.0, 0.0, 0.0, 0.0, 0.0, 0.0, 0.0, 0.0, 0.0, 0.0, 0.0, 0.0, 0.0, 0.0, 0.0, 0.0, 0.0, 0.19842692, 0.48189393, 1.1622148, 1.899229, 2.4945097, 3.2031772, 3.4299507, 3.6850712, 3.8268046, 3.996885, 4.110272, 4.3086987, 4.422086, 4.620512, 4.7055526, 4.818939, 4.932326, 4.9890194, 5.045713, 5.1024065, 5.1591, 5.215793, 5.32918, 5.3575263, 5.4425664, 5.4709134, 5.527607, 5.5843005, 5.612647, 5.66934, 5.697687, 5.75438, 5.8394203, 5.8677673, 5.9528074, 6.0095005, 6.0661945, 6.1228876, 6.1795807, 6.2362742, 6.264621, 6.292968, 6.321315, 6.321315, 6.321315, 6.321315, 6.321315, 6.321315, 6.321315, 6.321315, 6.321315, 6.321315, 6.321315];[0.0, 0.0, 0.0, 0.0, 0.0, 0.0, 0.0, 0.0, 0.0, 0.0, 0.0, 0.0, 0.0, 0.0, 0.0, 0.0, 0.0, 0.0, 0.0, 0.0, 0.0, 0.0, 0.0, 0.0, 0.0, 0.0, 0.0, 0.0, 0.0, 0.0, 0.0, 0.0, 0.0, 0.0, 0.0, 0.0, 0.0, 0.0566934, 0.19842692, 0.5102406, 0.8220543, 1.1055214, 1.3889884, 1.5023751, 1.5874153, 1.6441087, 1.7008021, 1.7574955, 1.8141888, 1.8708823, 1.9559225, 2.012616, 2.0409625, 2.0976558, 2.1260026, 2.1543493, 2.182696, 2.211043, 2.211043, 2.2677362, 2.2960827, 2.3527763, 2.3527763, 2.381123, 2.4378164, 2.466163, 2.5228565, 2.57955, 2.6078966, 2.6929367, 2.7496302, 2.8063235, 2.83467, 2.8630168, 2.9197102, 2.9197102, 2.948057, 2.948057, 2.9764037, 3.0047503, 3.0047503, 3.0047503, 3.0047503, 3.0047503, 3.0047503, 3.0047503, 3.0047503, 3.0047503, 3.0047503, 3.0047503];[0.004934299970045686, 0.016782899969257414, 0.03421759995399043, 0.05177149997325614, 0.06912959995679557, 0.08481609995942563, 0.10242859995923936, 0.11726929998258129, 0.13416659994982183, 0.15025819995207712, 0.1691855999524705, 0.1845834999694489, 0.20067109999945387, 0.2171123999869451, 0.23437699995702133, 0.25047269999049604, 0.26950339996255934, 0.2853373999823816, 0.30330099997809157, 0.3177847999613732, 0.33478829998057336, 0.3502652999595739, 0.36936239997157827, 0.38442509999731556, 0.4006665999768302, 0.4183091999730095, 0.4346992999780923, 0.44986880000215024, 0.4683517999947071, 0.4842625999590382, 0.5026793999713846, 0.5193568999529816, 0.53569469996728, 0.5521897999569774, 0.5686873999657109, 0.5847108999732882, 0.601513999979943, 0.6177410999662243, 0.6351512999972329, 0.6523746000020765, 0.6674379999749362, 0.6860419999575242, 0.7010448999935761, 0.7163901999592781, 0.7365799999679439, 0.7506476999842562, 0.7674466999596916, 0.7843003000016324, 0.8005119999870658, 0.8173460999969393, 0.8343077999888919, 0.8496913999551907, 0.8681551999761723, 0.8836456999997608, 0.9009051999892108, 0.9170013999682851, 0.9330425999942236, 0.9506479999981821, 0.966848099953495, 0.9828950999653898, 1.0014785999665037, 1.016422699962277, 1.0355827999883331, 1.0510572999482974, 1.067135099961888, 1.0839063999592327, 1.1011243999819271, 1.1168866999796592, 1.1347988999914378, 1.1503012999892235, 1.1676391999935731, 1.1855441999505274, 1.200472800002899, 1.216811099962797, 1.2340542000019923, 1.2501383999479003, 1.2709306000033394, 1.28384599997662, 1.301878799975384, 1.319265500002075, 1.3333812999771908, 1.350827099988237, 1.3682869999902323, 1.3838663999922574, 1.4027998999808915, 1.417556899948977, 1.4345503999502398, 1.4500808999873698, 1.4669817999820225, 1.4835928999818861]
S05;8;0;0;1;False;1000;True;;8;-61.18216891801844;drag;L;3.3449106;-6.094541;-61.24;6.95;1.4162135999649763;1.4162882000091486;1685538309.0194888;1685538309.0251093;1685538309.7799478;1685538310.2808177;1685538311.2622983;1685538312.6784873;[0.0, 0.0, 0.0, 0.0, 0.0, 0.0, 0.0, 0.0, 0.0, 0.0, 0.0, 0.0, 0.0, 0.0, 0.0, 0.0, 0.0, 0.0, 0.0, 0.0, 0.0, 0.0, 0.0, 0.0, 0.0, 0.0, 0.0, 0.0, 0.0, 0.19842692, 0.5102406, 0.7086675, 0.87874776, 1.1055214, 1.2189082, 1.3606416, 1.5590686, 1.6441087, 1.7291489, 1.8425356, 1.9559225, 2.1260026, 2.2393894, 2.3527763, 2.5228565, 2.6078966, 2.6929367, 2.7496302, 2.7496302, 2.8063235, 2.8630168, 2.8913634, 2.948057, 2.9764037, 3.0330973, 3.0614438, 3.0897903, 3.1748307, 3.2031772, 3.2598708, 3.2882173, 3.316564, 3.316564, 3.3449106, 3.3449106, 3.3449106, 3.3449106, 3.3449106, 3.3449106, 3.3449106, 3.3449106, 3.3449106, 3.3449106, 3.3449106, 3.3449106, 3.3449106, 3.3449106, 3.3449106, 3.3449106, 3.3449106, 3.3449106, 3.3449106, 3.3449106, 3.3449106, 3.3449106];[0.0, 0.0, 0.0, 0.0, 0.0, 0.0, 0.0, 0.0, 0.0, 0.0, 0.0, 0.0, 0.0, 0.0, 0.0, 0.0, 0.0, 0.0, 0.0, 0.0, 0.0, 0.0, 0.0, 0.0, 0.0, 0.0, 0.0, 0.0, 0.0, -0.3118137, -0.76536095, -1.1055214, -1.3889884, -1.7574955, -1.9275757, -2.1260026, -2.381123, -2.5228565, -2.6362433, -2.8630168, -3.0330973, -3.2598708, -3.4582977, -3.6283777, -3.8551514, -3.968538, -4.166965, -4.2236586, -4.337045, -4.478779, -4.563819, -4.7055526, -4.875633, -4.9890194, -5.130753, -5.215793, -5.32918, -5.4992604, -5.66934, -5.811074, -5.8677673, -5.9528074, -5.9528074, -6.0095005, -6.037847, -6.037847, -6.0661945, -6.0661945, -6.094541, -6.094541, -6.094541, -6.094541, -6.094541, -6.094541, -6.094541, -6.094541, -6.094541, -6.094541, -6.094541, -6.094541, -6.094541, -6.094541, -6.094541, -6.094541, -6.094541];[0.0038876000326126814, 0.01835110003594309, 0.03655600000638515, 0.052449400012847036, 0.06755420000990853, 0.08549480000510812, 0.10160540003562346, 0.119793199992273, 0.13444170000730082, 0.15155930002219975, 0.1675435000215657, 0.18447229999583215, 0.20086280000396073, 0.21803170000202954, 0.2345995000214316, 0.25171570002567023, 0.26764380000531673, 0.28554800001438707, 0.30106399999931455, 0.3195651000132784, 0.3365654000081122, 0.35289089998696, 0.36863159999484196, 0.38496360002318397, 0.40238680003676564, 0.4194830000051297, 0.4355218000127934, 0.4520232999930158, 0.467852900037542, 0.48451660003047436, 0.5012455999967642, 0.5181188000133261, 0.5354808000265621, 0.550837800023146, 0.5676622000173666, 0.5841164999874309, 0.5993871000246145, 0.6190951000317, 0.633413500036113, 0.6518883000244386, 0.6682628000271507, 0.6845243999850936, 0.701095600030385, 0.717999599990435, 0.7333229000214487, 0.7517267999937758, 0.7690318999812007, 0.783733399992343, 0.8009501000051387, 0.817527599981986, 0.8346369999926537, 0.8515394999994896, 0.8664588000392541, 0.8863613000139594, 0.9010580999893136, 0.9171869999845512, 0.9329857000266202, 0.9513145000091754, 0.9680754999862984, 0.9858191999956034, 1.0011551000061445, 1.0216771999839693, 1.0336715999874286, 1.0510208000196144, 1.067828900006134, 1.0846558000193909, 1.1014016999979503, 1.1167196999886073, 1.1334967000293545, 1.1516631999984384, 1.1666950000217184, 1.1879911000141874, 1.2009864000137895, 1.219054099987261, 1.235534000035841, 1.2522349000209942, 1.268543199985288, 1.2856990000000224, 1.3009187999996357, 1.3193231000332162, 1.3352012999821454, 1.3521867000381462, 1.3676012000069022, 1.3854882000014186, 1.4003456000355072]
S05;9;0;0;1;False;3000;True;;8;52.90060603812012;drag;L;4.2803516;5.3575263;51.38;6.86;1.4480573000037111;1.448146699985955;1685538313.419347;1685538313.4244184;1685538314.1801643;1685538314.6811824;1685538317.6798224;1685538319.128049;[0.0, 0.0, 0.0, 0.0, 0.0, 0.0, 0.0, 0.0, 0.0, 0.0, 0.0, 0.0, 0.0, 0.0, 0.0, 0.0, 0.0, 0.0, 0.0, 0.0, 0.0, 0.0, 0.0, 0.0, 0.0, 0.0, 0.0, 0.0, 0.0, 0.0, 0.0, 0.0, 0.0, 0.0, 0.0, 0.0, 0.0, 0.0, 0.0, 0.0, 0.0, 0.0, 0.1133868, 0.65197414, 1.5874153, 2.0693092, 2.6078966, 2.8063235, 2.948057, 3.0614438, 3.1181371, 3.2315238, 3.3449106, 3.4582977, 3.5433376, 3.6850712, 3.7417645, 3.798458, 3.8834982, 3.911845, 3.9401915, 3.968538, 3.968538, 3.968538, 3.968538, 3.968538, 4.025232, 4.025232, 4.0535784, 4.081925, 4.110272, 4.1386185, 4.166965, 4.1953115, 4.252005, 4.252005, 4.2803516, 4.2803516, 4.2803516, 4.2803516, 4.2803516, 4.2803516, 4.2803516, 4.2803516, 4.2803516, 4.2803516, 4.2803516];[0.0, 0.0, 0.0, 0.0, 0.0, 0.0, 0.0, 0.0, 0.0, 0.0, 0.0, 0.0, 0.0, 0.0, 0.0, 0.0, 0.0, 0.0, 0.0, 0.0, 0.0, 0.0, 0.0, 0.0, 0.0, 0.0, 0.0, 0.0, 0.0, 0.0, 0.0, 0.0, 0.0, 0.0, 0.0, 0.0, 0.0, 0.0, 0.0, 0.0, 0.0, 0.0, 0.1700802, 1.0771747, 2.4094696, 3.0330973, 3.798458, 4.0535784, 4.1953115, 4.365392, 4.4504323, 4.5354724, 4.6772056, 4.762246, 4.847286, 4.960673, 5.017366, 5.0740595, 5.130753, 5.1591, 5.1874466, 5.1874466, 5.1874466, 5.1874466, 5.1874466, 5.1874466, 5.1874466, 5.1874466, 5.215793, 5.215793, 5.215793, 5.2441397, 5.2441397, 5.300833, 5.300833, 5.32918, 5.3575263, 5.3575263, 5.3575263, 5.3575263, 5.3575263, 5.3575263, 5.3575263, 5.3575263, 5.3575263, 5.3575263, 5.3575263];[0.0051435999921523035, 0.017578600032720715, 0.03532299998914823, 0.05017110001062974, 0.06998859997838736, 0.08431390003534034, 0.10110430000349879, 0.11792960000457242, 0.13516750000417233, 0.15143790002912283, 0.1692369999946095, 0.18410890002269298, 0.2009342000237666, 0.21785559999989346, 0.23602290003327653, 0.2508271000115201, 0.26900820003356785, 0.28337429999373853, 0.30204720003530383, 0.3169612000347115, 0.33547480002744123, 0.35128900001291186, 0.3679948000353761, 0.3837548000155948, 0.40262890001758933, 0.41680730000371113, 0.43497760000173, 0.45010100002400577, 0.46741159999510273, 0.4842711000237614, 0.5021095999982208, 0.517682200006675, 0.5347418999881484, 0.5510213000234216, 0.5685269000241533, 0.584966299997177, 0.6005474000121467, 0.617354099988006, 0.6363109999801964, 0.6510290000005625, 0.668023300007917, 0.6853820999967866, 0.7026017000316642, 0.7179972000303678, 0.7350775999948382, 0.7487806000281125, 0.7700426999945194, 0.7835351999965496, 0.8006385000189766, 0.8199166000122204, 0.8336274999892339, 0.8509201999986544, 0.8687694999971427, 0.8838580999872647, 0.9020661999820732, 0.9168839000049047, 0.9334072000347078, 0.9504690000321716, 0.9672825000016019, 0.9834994000266306, 1.0012047000345774, 1.0167426000116393, 1.0355710000148974, 1.0493498999858275, 1.0672267000190914, 1.0834752999944612, 1.0989267000113614, 1.1158795999945141, 1.1345687999855727, 1.1503913000342436, 1.1691941000171937, 1.1830191999906674, 1.2002885999972932, 1.2178254000027664, 1.2336927999858744, 1.2506194000015967, 1.2686673999996856, 1.2832031000289135, 1.3013347000232898, 1.3176941000274383, 1.3353624999872409, 1.3509345999918878, 1.36738010001136, 1.3838237000163645, 1.4015005999826826, 1.416958899993915, 1.4352450000005774]
S05;10;0;0;1;False;3000;True;;8;17.902531940368792;drag;L;6.944942;3.713418;28.13;7.88;1.4988398000132293;1.4989415999734774;1685538319.960246;1685538319.9751878;1685538320.729684;1685538321.2311244;1685538324.2303355;1685538325.7285247;[0.0, 0.0, 0.0, 0.0, 0.0, 0.0, 0.0, 0.0, 0.0, 0.0, 0.0, 0.0, 0.0, 0.0, 0.0, 0.0, 0.0, 0.0, 0.0, 0.0, 0.0, 0.0, 0.0, 0.0, 0.0, 0.0, 0.0, 0.0, 0.0, 0.0, 0.0, 0.0, 0.0, 0.0, 0.0, 0.0, 0.0, 0.0, 0.0, 0.0, 0.0, 0.3118137, 1.2472548, 1.7858423, 2.1543493, 2.4094696, 2.7212832, 2.948057, 3.1748307, 3.2882173, 3.514991, 3.6567245, 3.8551514, 4.081925, 4.2803516, 4.5071254, 4.7055526, 4.847286, 4.9890194, 5.130753, 5.2441397, 5.3858733, 5.4992604, 5.5843005, 5.75438, 5.8677673, 6.151234, 6.378008, 6.5197415, 6.6898212, 6.7181687, 6.8032084, 6.8599014, 6.9165955, 6.9165955, 6.944942, 6.944942, 6.944942, 6.944942, 6.944942, 6.944942, 6.944942, 6.944942, 6.944942, 6.944942, 6.944942, 6.944942, 6.944942, 6.944942, 6.944942];[0.0, 0.0, 0.0, 0.0, 0.0, 0.0, 0.0, 0.0, 0.0, 0.0, 0.0, 0.0, 0.0, 0.0, 0.0, 0.0, 0.0, 0.0, 0.0, 0.0, 0.0, 0.0, 0.0, 0.0, 0.0, 0.0, 0.0, 0.0, 0.0, 0.0, 0.0, 0.0, 0.0, 0.0, 0.0, 0.0, 0.0, 0.0, 0.0, 0.0, 0.0, 0.1700802, 0.7086675, 0.9921345, 1.1905615, 1.332295, 1.4740285, 1.5590686, 1.6724553, 1.7291489, 1.8425356, 1.9275757, 1.984269, 2.1260026, 2.182696, 2.2960827, 2.381123, 2.466163, 2.5228565, 2.6078966, 2.6362433, 2.7212832, 2.7779768, 2.83467, 2.9197102, 3.0047503, 3.1181371, 3.2598708, 3.316564, 3.4299507, 3.4582977, 3.4866443, 3.514991, 3.5716846, 3.6000311, 3.6283777, 3.6567245, 3.6850712, 3.713418, 3.713418, 3.713418, 3.713418, 3.713418, 3.713418, 3.713418, 3.713418, 3.713418, 3.713418, 3.713418, 3.713418];[0.0034545999951660633, 0.016369599965400994, 0.033595999993849546, 0.04982670000754297, 0.06851020001340657, 0.08379489998333156, 0.10088899999391288, 0.1168457999592647, 0.13425140001345426, 0.15036199998576194, 0.16856469999765977, 0.1831687999656424, 0.20001859997864813, 0.21602819999679923, 0.23512249998748302, 0.2501022999640554, 0.26834700000472367, 0.28351669997209683, 0.3015410999651067, 0.3159931999980472, 0.33361669996520504, 0.34966339997481555, 0.36951439996482804, 0.38356290000956506, 0.4012914999620989, 0.4170873999828473, 0.4347523999749683, 0.4499241000157781, 0.4669456999981776, 0.48355140001513064, 0.5013004000065848, 0.5170041999663226, 0.5347604000126012, 0.5501795999589376, 0.5670687999809161, 0.5837658999953419, 0.600692700012587, 0.6176674999878742, 0.6336344999726862, 0.651074499997776, 0.6677101000095718, 0.6839622000115924, 0.7029756999691017, 0.7169056999846362, 0.7344318999676034, 0.7484274999587797, 0.7658273999695666, 0.7842449999880046, 0.8005597000010312, 0.8165613999590278, 0.8347485999693163, 0.8496572999865748, 0.8672587999608368, 0.8841299999621697, 0.9011368000064977, 0.9196100999834016, 0.9336768999928609, 0.9495274999644607, 0.9674268999951892, 0.9825206999666989, 0.999588800012134, 1.0188846999662928, 1.0327351999585517, 1.050752899958752, 1.0677527000079863, 1.0830665999674238, 1.1023710999870673, 1.1167606000090018, 1.1331712999963202, 1.1507889999775216, 1.1666527999914251, 1.184188399987761, 1.2002656999975443, 1.2177128999610431, 1.2333793999860063, 1.2498296999838203, 1.2665647999965586, 1.2833527000038885, 1.300381999986712, 1.3167109999922104, 1.3340836999705061, 1.3502448999788612, 1.3686682999832556, 1.3841450999607332, 1.4009600999997929, 1.418550900008995, 1.4344564999919385, 1.4501539999619126, 1.467656499997247, 1.4828606999944896]
S05;11;0;0;1;False;1000;True;;8;-33.57024776004019;drag;L;6.774862;-3.4299507;-26.85;7.59;1.5844378000474535;1.5845389000023715;1685538326.407029;1685538326.4250104;1685538327.1789243;1685538327.6808183;1685538328.6624997;1685538330.2466264;[0.0, 0.0, 0.0, 0.0, 0.0, 0.0, 0.0, 0.0, 0.0, 0.0, 0.0, 0.0, 0.0, 0.0, 0.0, 0.0, 0.0, 0.0, 0.0, 0.0, 0.0, 0.0, 0.0, 0.0, 0.0, 0.0, 0.0, 0.0, 0.0, 0.0, 0.0, 0.0, 0.0, 0.0, 0.0, 0.0, 0.0, 0.0, 0.0, 0.0, 0.1700802, 0.65197414, 1.0204812, 1.4740285, 2.0693092, 2.4378164, 2.8063235, 3.3732576, 3.7417645, 4.422086, 4.7905927, 5.130753, 5.4992604, 5.697687, 5.896114, 6.1228876, 6.2362742, 6.321315, 6.4630475, 6.5197415, 6.5764346, 6.633128, 6.6898212, 6.7181687, 6.7465153, 6.774862, 6.8032084, 6.831555, 6.831555, 6.831555, 6.831555, 6.831555, 6.831555, 6.831555, 6.831555, 6.8032084, 6.8032084, 6.8032084, 6.8032084, 6.8032084, 6.774862, 6.774862, 6.774862, 6.774862, 6.774862, 6.774862, 6.774862, 6.774862, 6.774862, 6.774862, 6.774862, 6.774862, 6.774862, 6.774862, 6.774862];[0.0, 0.0, 0.0, 0.0, 0.0, 0.0, 0.0, 0.0, 0.0, 0.0, 0.0, 0.0, 0.0, 0.0, 0.0, 0.0, 0.0, 0.0, 0.0, 0.0, 0.0, 0.0, 0.0, 0.0, 0.0, 0.0, 0.0, 0.0, 0.0, 0.0, 0.0, 0.0, 0.0, 0.0, 0.0, 0.0, 0.0, 0.0, 0.0, 0.0, -0.0283467, -0.19842692, -0.39685383, -0.56693405, -0.8220543, -0.9921345, -1.1622148, -1.417335, -1.5590686, -1.8141888, -1.984269, -2.0976558, -2.2960827, -2.3527763, -2.4378164, -2.5512033, -2.6078966, -2.6929367, -2.7779768, -2.83467, -2.8630168, -2.948057, -2.9764037, -3.0614438, -3.0897903, -3.1181371, -3.1748307, -3.2031772, -3.2598708, -3.2882173, -3.3449106, -3.3732576, -3.4016042, -3.4016042, -3.4299507, -3.4299507, -3.4299507, -3.4299507, -3.4299507, -3.4299507, -3.4299507, -3.4299507, -3.4299507, -3.4299507, -3.4299507, -3.4299507, -3.4299507, -3.4299507, -3.4299507, -3.4299507, -3.4299507, -3.4299507, -3.4299507, -3.4299507, -3.4299507];[0.00489229999948293, 0.018612299987580627, 0.034572599979583174, 0.05236259999219328, 0.06800959998508915, 0.08526949997758493, 0.1009351999964565, 0.11762809997890145, 0.13411709998035803, 0.15230269997846335, 0.16814169997815043, 0.1856557999853976, 0.20081690000370145, 0.21843429998261854, 0.23356139997486025, 0.25138470000820234, 0.26606499997433275, 0.2848045999999158, 0.3009416999993846, 0.31863829999929294, 0.33440880000125617, 0.3514979000319727, 0.36887750000460073, 0.3847476000082679, 0.4008054999867454, 0.41886999999405816, 0.43449359998339787, 0.45179730001837015, 0.46822450001491234, 0.48487859999295324, 0.5018590000108816, 0.518365400028415, 0.5343354999786243, 0.5514915999956429, 0.5665444000042044, 0.584782499994617, 0.6008833000087179, 0.6192897000000812, 0.6349993000039831, 0.6520384000032209, 0.6681057999958284, 0.6864200999843888, 0.7005290000233799, 0.7177871000021696, 0.7368784000282176, 0.7505674000130966, 0.7685936000198126, 0.7846091000246815, 0.8003176000202075, 0.8202058000024408, 0.8340886000078171, 0.8514399999985471, 0.869163200026378, 0.883869000012055, 0.9003367000259459, 0.9179622000083327, 0.9334619999863207, 0.9511853000149131, 0.968153900001198, 0.9846939999843016, 1.0006240999791771, 1.0179327999940142, 1.035396600025706, 1.0505378000088967, 1.067334600025788, 1.0861737999948673, 1.1008769000181928, 1.1179614000138827, 1.1338618000154383, 1.1516785999992862, 1.1679319000104442, 1.185317200026475, 1.2000127999926917, 1.2181905999896117, 1.2339344000210986, 1.2522288999753073, 1.2682340000174008, 1.2861977000138722, 1.3006608000141568, 1.3181664000148885, 1.333902299986221, 1.3515072999871336, 1.3673526999773458, 1.3847345000249334, 1.4009226000052877, 1.4176047000219114, 1.434512600011658, 1.451101100014057, 1.4670987999998033, 1.486299499985762, 1.4999401000095531, 1.5181687999865972, 1.5332177000236697, 1.5500738000264391, 1.5672067999839783]
S05;12;0;0;1;False;1000;True;;8;-105.91794731126839;drag;L;-2.5228565;-6.094541;-112.49;6.6;1.2328450999921188;1.232934799976647;1685538331.049863;1685538331.057557;1685538331.8132582;1685538332.3138611;1685538333.2955241;1685538334.5284;[0.0, 0.0, 0.0, 0.0, 0.0, 0.0, 0.0, 0.0, 0.0, 0.0, 0.0, 0.0, 0.0, 0.0, 0.0, 0.0, 0.0, 0.0, 0.0, 0.0, 0.0, 0.0, 0.0, 0.0, 0.0, 0.0, 0.0, 0.0, 0.0, 0.0, -0.0850401, -0.48189393, -0.8220543, -1.0204812, -1.2472548, -1.3606416, -1.5023751, -1.6724553, -1.7858423, -1.8708823, -2.012616, -2.0693092, -2.1543493, -2.211043, -2.2393894, -2.2960827, -2.2960827, -2.2960827, -2.3244295, -2.3244295, -2.3244295, -2.3244295, -2.3527763, -2.3527763, -2.381123, -2.381123, -2.4378164, -2.4378164, -2.466163, -2.466163, -2.4945097, -2.4945097, -2.5228565, -2.5228565, -2.5228565, -2.5228565, -2.5228565, -2.5228565, -2.5228565, -2.5228565, -2.5228565, -2.5228565, -2.5228565, -2.5228565];[0.0, 0.0, 0.0, 0.0, 0.0, 0.0, 0.0, 0.0, 0.0, 0.0, 0.0, 0.0, 0.0, 0.0, 0.0, 0.0, 0.0, 0.0, 0.0, 0.0, 0.0, 0.0, 0.0, 0.0, 0.0, 0.0, 0.0, 0.0, 0.0, 0.0, -0.19842692, -1.1338681, -1.9559225, -2.4094696, -2.8630168, -3.0897903, -3.3449106, -3.6850712, -3.9401915, -4.110272, -4.4504323, -4.620512, -4.733899, -4.960673, -5.1024065, -5.2441397, -5.300833, -5.3858733, -5.4425664, -5.4992604, -5.527607, -5.5843005, -5.612647, -5.697687, -5.7260337, -5.782727, -5.8394203, -5.896114, -5.9528074, -6.0095005, -6.037847, -6.0661945, -6.094541, -6.094541, -6.094541, -6.094541, -6.094541, -6.094541, -6.094541, -6.094541, -6.094541, -6.094541, -6.094541, -6.094541];[0.004851199977565557, 0.016800799989141524, 0.03333880001446232, 0.051219799963291734, 0.0670788999996148, 0.08629289997043088, 0.10102609999012202, 0.11892420001095161, 0.13412679999601096, 0.15151300001889467, 0.16849770001135767, 0.185491300013382, 0.20046999998157844, 0.21895870001753792, 0.2345676000113599, 0.2526437999913469, 0.26729879999766126, 0.2847569999867119, 0.30100679997121915, 0.3181243999861181, 0.3344386999960989, 0.3527493000146933, 0.3678285999922082, 0.3852044999948703, 0.40005009999731556, 0.41793920000782236, 0.43378039996605366, 0.4519467999925837, 0.4667865000083111, 0.4837019999977201, 0.5010074999881908, 0.517772099992726, 0.5338015999877825, 0.5516445999965072, 0.5682247999939136, 0.583376299997326, 0.6024437000160106, 0.6192523000063375, 0.6320945000043139, 0.651086799975019, 0.667639399995096, 0.6827446999959648, 0.6989019999746233, 0.7166634000022896, 0.7339333000127226, 0.7516340999864042, 0.7666257999953814, 0.7846601000055671, 0.8006004000199027, 0.8180510000092909, 0.8356255000107922, 0.850653900008183, 0.8685034000081941, 0.884862000006251, 0.9012338999891654, 0.919032400008291, 0.9329327999730594, 0.951269700017292, 0.9678015999961644, 0.9843971999944188, 1.0005252999835648, 1.0166889000101946, 1.032215500017628, 1.049451400001999, 1.0659534999867901, 1.0848207999952137, 1.101016799977515, 1.1181059000082314, 1.13362059998326, 1.1525134000112303, 1.1676885999622755, 1.184888499963563, 1.2004042000044137, 1.2174734000000171]
S05;13;0;0;1;False;3000;True;;8;-52.41078801945325;drag;L;5.1024065;-5.981154;-49.53;7.86;1.3810998999979347;1.3812027999665588;1685538335.266308;1685538335.273326;1685538336.0281951;1685538336.530771;1685538339.5298138;1685538340.9110146;[0.0, 0.0, 0.0, 0.0, 0.0, 0.0, 0.0, 0.0, 0.0, 0.0, 0.0, 0.0, 0.0, 0.0, 0.0, 0.0, 0.0, 0.0, 0.0, 0.0, 0.0, 0.0, 0.0, 0.0, 0.0, 0.0, 0.0, 0.0, 0.0, 0.0, 0.0, 0.0, 0.0, 0.0, 0.0, 0.0, 0.0, 0.0, 0.0, 0.0, 0.0, 0.0, 0.0, 0.0850401, 0.56693405, 0.87874776, 1.2756016, 1.4740285, 1.7008021, 1.984269, 2.1543493, 2.2960827, 2.57955, 2.7779768, 3.0330973, 3.1748307, 3.3449106, 3.514991, 3.6000311, 3.6567245, 3.770111, 3.8551514, 3.996885, 4.081925, 4.166965, 4.3086987, 4.422086, 4.7055526, 4.875633, 4.9890194, 5.0740595, 5.1024065, 5.1024065, 5.1024065, 5.1024065, 5.1024065, 5.1024065, 5.1024065, 5.1024065, 5.1024065, 5.1024065, 5.1024065, 5.1024065];[0.0, 0.0, 0.0, 0.0, 0.0, 0.0, 0.0, 0.0, 0.0, 0.0, 0.0, 0.0, 0.0, 0.0, 0.0, 0.0, 0.0, 0.0, 0.0, 0.0, 0.0, 0.0, 0.0, 0.0, 0.0, 0.0, 0.0, 0.0, 0.0, 0.0, 0.0, 0.0, 0.0, 0.0, 0.0, 0.0, 0.0, 0.0, 0.0, 0.0, 0.0, 0.0, 0.0, -0.0850401, -0.7086675, -1.1055214, -1.7291489, -2.0976558, -2.4378164, -2.8913634, -3.146484, -3.3449106, -3.6850712, -3.8834982, -4.110272, -4.2803516, -4.422086, -4.563819, -4.648859, -4.7055526, -4.818939, -4.9039793, -5.045713, -5.1591, -5.2441397, -5.3858733, -5.4992604, -5.697687, -5.8394203, -5.924461, -5.981154, -5.981154, -5.981154, -5.981154, -5.981154, -5.981154, -5.981154, -5.981154, -5.981154, -5.981154, -5.981154, -5.981154, -5.981154];[0.004807999997865409, 0.016159499995410442, 0.03449069999624044, 0.05003469996154308, 0.06684519996633753, 0.08270299999276176, 0.10104969999520108, 0.11649539996869862, 0.13477869995404035, 0.1496053999871947, 0.1679345999727957, 0.18379969999659806, 0.19988829997600988, 0.21705340000335127, 0.23482620000140741, 0.25075229996582493, 0.2666237999801524, 0.28348479996202514, 0.3003764000022784, 0.316432099964004, 0.33390919998055324, 0.349410499969963, 0.3667683999519795, 0.38238389999605715, 0.40067329996963963, 0.41705889999866486, 0.43372039997484535, 0.45010329998331144, 0.4666643999516964, 0.4813711000024341, 0.4996454999782145, 0.5167238999856636, 0.5340391999925487, 0.5500988999847323, 0.5678950999863446, 0.5835320999613032, 0.60050289996434, 0.6168117999914102, 0.633940999978222, 0.6503836999763735, 0.6671603999566287, 0.6823009999934584, 0.7005438999622129, 0.716654899995774, 0.7324045999557711, 0.7504571999888867, 0.7672124999808148, 0.7813321999856271, 0.8001398000051267, 0.8168456999701448, 0.8339821999543346, 0.849717499979306, 0.8670347000006586, 0.8823032999644056, 0.8993554000044242, 0.9153631999506615, 0.9339006000082009, 0.9492610999732278, 0.965680799970869, 0.9833170999772847, 0.9998138999799266, 1.016540399985388, 1.0330577999702655, 1.0500031999545172, 1.0667448999593034, 1.081414499960374, 1.1010323999798857, 1.1184495000052266, 1.1326853999635205, 1.1491760999779217, 1.167806199984625, 1.1827863999642432, 1.1990903999540024, 1.2171092999633402, 1.2342929999576882, 1.2492242999724112, 1.267523699963931, 1.2828709000023082, 1.3006099999765866, 1.3172447999822907, 1.3342825999716297, 1.3491400000057183, 1.3663614999968559]
S05;14;0;0;1;False;1000;True;;8;-67.0861795958855;drag;L;3.0897903;-6.2362742;-63.64;6.96;1.4144733999855816;1.4145715999766253;1685538341.637491;1685538341.6564684;1685538342.4125574;1685538342.9124405;1685538343.8937438;1685538345.309138;[0.0, 0.0, 0.0, 0.0, 0.0, 0.0, 0.0, 0.0, 0.0, 0.0, 0.0, 0.0, 0.0, 0.0, 0.0, 0.0, 0.0, 0.0, 0.0, 0.0, 0.0, 0.0, 0.0, 0.0, 0.0, 0.0, 0.0, 0.0, 0.0, 0.0, 0.0, 0.0, 0.0, 0.0, 0.0, 0.0, 0.0, 0.0, 0.4535472, 0.9070944, 1.1905615, 1.3889884, 1.6724553, 1.7858423, 1.8708823, 1.9275757, 1.984269, 2.0409625, 2.0976558, 2.182696, 2.2677362, 2.2960827, 2.3527763, 2.4094696, 2.4094696, 2.466163, 2.5228565, 2.5228565, 2.5512033, 2.57955, 2.57955, 2.6078966, 2.66459, 2.6929367, 2.7212832, 2.7496302, 2.7779768, 2.83467, 2.948057, 3.0047503, 3.0614438, 3.0897903, 3.0897903, 3.0897903, 3.0897903, 3.0897903, 3.0897903, 3.0897903, 3.0897903, 3.0897903, 3.0897903, 3.0897903, 3.0897903, 3.0897903, 3.0897903];[0.0, 0.0, 0.0, 0.0, 0.0, 0.0, 0.0, 0.0, 0.0, 0.0, 0.0, 0.0, 0.0, 0.0, 0.0, 0.0, 0.0, 0.0, 0.0, 0.0, 0.0, 0.0, 0.0, 0.0, 0.0, 0.0, 0.0, 0.0, 0.0, 0.0, 0.0, 0.0, 0.0, 0.0, 0.0, 0.0, 0.0, 0.0, -0.56693405, -1.3039483, -1.8425356, -2.3527763, -3.0614438, -3.3732576, -3.6850712, -3.8834982, -4.025232, -4.1953115, -4.337045, -4.5354724, -4.6772056, -4.7905927, -4.9039793, -4.9890194, -5.045713, -5.1591, -5.2724867, -5.3575263, -5.41422, -5.4709134, -5.5559535, -5.6409936, -5.66934, -5.7260337, -5.782727, -5.811074, -5.8677673, -5.9528074, -6.0661945, -6.1228876, -6.1795807, -6.2362742, -6.2362742, -6.2362742, -6.2362742, -6.2362742, -6.2362742, -6.2362742, -6.2362742, -6.2362742, -6.2362742, -6.2362742, -6.2362742, -6.2362742, -6.2362742];[0.003500399994663894, 0.02003419998800382, 0.03566219995263964, 0.05332690000068396, 0.06790339999133721, 0.08576119999634102, 0.10145969997392967, 0.11914809996960685, 0.13428509997902438, 0.15221349999774247, 0.16901999997207895, 0.18629059998784214, 0.20105549995787442, 0.21849349996773526, 0.23512259998824447, 0.25326659996062517, 0.267776699969545, 0.28565679996972904, 0.30133659997954965, 0.3190471999696456, 0.3350042999954894, 0.351787899970077, 0.36847769998712465, 0.3849663999862969, 0.4015015999902971, 0.41865710000274703, 0.43604649999178946, 0.45349079999141395, 0.4678872999502346, 0.4853580999770202, 0.502909799979534, 0.5198861999670044, 0.5345063999993727, 0.5525369999813847, 0.5674263999680988, 0.5850408999831416, 0.5999961000052281, 0.618189100001473, 0.6346306999912485, 0.6510615999577567, 0.6679689000011422, 0.6845360999577679, 0.7003594999550842, 0.7194072999991477, 0.7353190999710932, 0.7512372999917716, 0.768264599959366, 0.7839570999494754, 0.8018753999494947, 0.819686200004071, 0.8334854999557137, 0.853049099969212, 0.8683684999705292, 0.8853259999887086, 0.9006674999836832, 0.9174281999585219, 0.9351248999591917, 0.9530286999652162, 0.967000000004191, 0.9861649999511428, 1.0009149999823421, 1.0175283999997191, 1.0352370999753475, 1.0503785999608226, 1.0679172999807633, 1.0841717000002973, 1.100370500003919, 1.1184471999877132, 1.135816399997566, 1.1508825999917462, 1.1671251999796368, 1.184228099999018, 1.2015664000064135, 1.2198779999744147, 1.234357999986969, 1.2530899999546818, 1.26788379997015, 1.2858572999830358, 1.301256199949421, 1.3188184999744408, 1.334145599976182, 1.352170899976045, 1.3664145999937318, 1.382959899958223, 1.3999878999893554]
S05;15;0;0;1;False;3000;True;;8;132.5525021889009;drag;L;-4.648859;4.5921655;135.35;6.53;1.364707799977623;1.3647868999978527;1685538346.0175076;1685538346.024103;1685538346.7753215;1685538347.2789953;1685538350.27792;1685538351.6428268;[0.0, 0.0, 0.0, 0.0, 0.0, 0.0, 0.0, 0.0, 0.0, 0.0, 0.0, 0.0, 0.0, 0.0, 0.0, 0.0, 0.0, 0.0, 0.0, 0.0, 0.0, 0.0, 0.0, 0.0, 0.0, 0.0, 0.0, 0.0, 0.0, 0.0, 0.0, 0.0, 0.0, 0.0, 0.0, 0.0, 0.0, -0.0850401, -0.7086675, -1.1338681, -1.4456817, -1.7008021, -1.899229, -2.012616, -2.182696, -2.3244295, -2.4094696, -2.6078966, -2.7779768, -3.0047503, -3.2031772, -3.4299507, -3.7417645, -3.8834982, -4.025232, -4.110272, -4.166965, -4.1953115, -4.2236586, -4.2236586, -4.252005, -4.3086987, -4.337045, -4.3937387, -4.422086, -4.478779, -4.5354724, -4.5921655, -4.620512, -4.648859, -4.648859, -4.648859, -4.648859, -4.648859, -4.648859, -4.648859, -4.648859, -4.648859, -4.648859, -4.648859, -4.648859, -4.648859];[0.0, 0.0, 0.0, 0.0, 0.0, 0.0, 0.0, 0.0, 0.0, 0.0, 0.0, 0.0, 0.0, 0.0, 0.0, 0.0, 0.0, 0.0, 0.0, 0.0, 0.0, 0.0, 0.0, 0.0, 0.0, 0.0, 0.0, 0.0, 0.0, 0.0, 0.0, 0.0, 0.0, 0.0, 0.0, 0.0, 0.0, 0.0566934, 0.6803208, 1.0488279, 1.3889884, 1.6157619, 1.8425356, 1.9559225, 2.0976558, 2.211043, 2.3244295, 2.466163, 2.6078966, 2.8063235, 2.9764037, 3.1748307, 3.4866443, 3.6283777, 3.713418, 3.8551514, 3.8834982, 3.9401915, 3.968538, 4.025232, 4.081925, 4.166965, 4.252005, 4.3086987, 4.365392, 4.422086, 4.478779, 4.5354724, 4.563819, 4.563819, 4.5921655, 4.5921655, 4.5921655, 4.5921655, 4.5921655, 4.5921655, 4.5921655, 4.5921655, 4.5921655, 4.5921655, 4.5921655, 4.5921655];[0.003939099959097803, 0.01702339999610558, 0.03410170000279322, 0.05169769999338314, 0.06788990000495687, 0.08453679998638108, 0.101766099978704, 0.117162799986545, 0.13442369998665527, 0.14968049997696653, 0.16727589996298775, 0.18385719996877015, 0.200208299967926, 0.21634419995825738, 0.23525329999392852, 0.2518232999718748, 0.2684645999688655, 0.28361599997151643, 0.3019775999709964, 0.317670599964913, 0.33423599996604025, 0.3501577000133693, 0.36790700000710785, 0.3828027999843471, 0.401092299958691, 0.41683820000616834, 0.4357151999720372, 0.44980080000823364, 0.46761519997380674, 0.48317339998902753, 0.50247040000977, 0.5172349999775179, 0.5327811999595724, 0.5494723999872804, 0.5665900000021793, 0.5825494999880902, 0.600558899983298, 0.6161690999870189, 0.634114199958276, 0.649316800001543, 0.6673018999863416, 0.6830916999606416, 0.699297100014519, 0.7172299000085331, 0.7332757000112906, 0.7499251000117511, 0.767226199968718, 0.7827239999896847, 0.8001213999814354, 0.8185885999700986, 0.8321506999782287, 0.8491745999781415, 0.86640100000659, 0.8822622000006959, 0.9009463000111282, 0.9160120000015013, 0.9357495000003837, 0.9487332999706268, 0.9658034999738447, 0.9839503999683075, 1.0000526999938302, 1.0161979999975301, 1.0360874999896623, 1.0500098000047728, 1.0676682000048459, 1.0831008999957703, 1.1005777000100352, 1.1167004999588244, 1.1330438999575563, 1.1496120999800041, 1.1660820000106469, 1.1816769000142813, 1.2005752999684773, 1.2159323999658227, 1.2329210999887437, 1.2520131999626756, 1.2673683000029996, 1.2841343999607489, 1.3026105999597348, 1.3167186999926344, 1.3338379999622703, 1.349993399984669]
S05;16;0;0;1;False;3000;True;;8;100.75859463252554;drag;L;-3.2031772;5.9528074;118.28;6.76;1.4970906999660656;1.4971745999646373;1685538352.366372;1685538352.3725867;1685538353.1285899;1685538353.6306298;1685538356.6281555;1685538358.1252468;[0.0, 0.0, 0.0, 0.0, 0.0, 0.0, 0.0, 0.0, 0.0, 0.0, 0.0, 0.0, 0.0, 0.0, 0.0, 0.0, 0.0, 0.0, 0.0, 0.0, 0.0, 0.0, 0.0, 0.0, 0.0, 0.0, 0.0, 0.0, 0.0, 0.0, 0.0, 0.0, 0.0, 0.0, 0.0, 0.0, 0.0, -0.42520052, -0.9070944, -1.1338681, -1.3039483, -1.4740285, -1.6157619, -1.6441087, -1.7291489, -1.7858423, -1.8141888, -1.8708823, -1.9559225, -2.0409625, -2.0976558, -2.182696, -2.2393894, -2.2677362, -2.3244295, -2.3527763, -2.4094696, -2.4378164, -2.4945097, -2.5228565, -2.6078966, -2.6929367, -2.7779768, -2.83467, -2.8913634, -2.8913634, -2.9197102, -2.9197102, -2.948057, -2.948057, -3.0047503, -3.0330973, -3.0614438, -3.0614438, -3.0897903, -3.1181371, -3.1181371, -3.146484, -3.146484, -3.1748307, -3.1748307, -3.2031772, -3.2031772, -3.2031772, -3.2031772, -3.2031772, -3.2031772, -3.2031772, -3.2031772, -3.2031772];[0.0, 0.0, 0.0, 0.0, 0.0, 0.0, 0.0, 0.0, 0.0, 0.0, 0.0, 0.0, 0.0, 0.0, 0.0, 0.0, 0.0, 0.0, 0.0, 0.0, 0.0, 0.0, 0.0, 0.0, 0.0, 0.0, 0.0, 0.0, 0.0, 0.0, 0.0, 0.0, 0.0, 0.0, 0.0, 0.0, 0.0, 0.8220543, 1.7574955, 2.3244295, 2.6929367, 3.0330973, 3.316564, 3.4299507, 3.6000311, 3.798458, 3.8834982, 3.996885, 4.1953115, 4.365392, 4.5354724, 4.6772056, 4.818939, 4.875633, 4.9039793, 4.932326, 4.9890194, 5.017366, 5.045713, 5.0740595, 5.215793, 5.3575263, 5.5559535, 5.6409936, 5.75438, 5.782727, 5.811074, 5.8394203, 5.8394203, 5.8394203, 5.8394203, 5.8394203, 5.8394203, 5.8394203, 5.8677673, 5.896114, 5.896114, 5.924461, 5.924461, 5.9528074, 5.9528074, 5.9528074, 5.9528074, 5.9528074, 5.9528074, 5.9528074, 5.9528074, 5.9528074, 5.9528074, 5.9528074];[0.00400179997086525, 0.017307400004938245, 0.03473640000447631, 0.05054389999713749, 0.06793859996832907, 0.08415469998726621, 0.10089509998215362, 0.11763970000902191, 0.13463849999243394, 0.1505032000131905, 0.1670392999658361, 0.18395480001345277, 0.2003829999594018, 0.21636650001164526, 0.23523009999189526, 0.24968309997348115, 0.2682113999617286, 0.2830114999669604, 0.300432899966836, 0.31728239997755736, 0.3344560000114143, 0.34976489999098703, 0.3694304999662563, 0.38281460001599044, 0.4013375999638811, 0.41657399997347966, 0.43385999999009073, 0.4506340000079945, 0.46862589998636395, 0.4828247000114061, 0.4998978999792598, 0.515936599986162, 0.5329290999798104, 0.5483647999935783, 0.5668479999876581, 0.5818465999909677, 0.5994046999840066, 0.6166138999979012, 0.6338544999598525, 0.6492241999949329, 0.6653693999978714, 0.6820947999949567, 0.7040574999991804, 0.7156330000143498, 0.7334108999930322, 0.7519084999803454, 0.7660365999909118, 0.7822259999811649, 0.8013202999718487, 0.8153794999816455, 0.8331399000016972, 0.8492779000080191, 0.8679228000110015, 0.8826670999987982, 0.8987533999606967, 0.9161569999996573, 0.9337119999690913, 0.9496392000000924, 0.9671658999868669, 0.9833526000147685, 0.9997689999872819, 1.017832899990026, 1.033483300008811, 1.0483339999918826, 1.0693247999879532, 1.0829060999676585, 1.1026051999651827, 1.1177227000007406, 1.1325141999986954, 1.149900499964133, 1.1677059999783523, 1.1829520000028424, 1.2004928999813274, 1.215986699971836, 1.233238100016024, 1.2518459999701008, 1.2663727999897674, 1.2835860999766737, 1.2992559999693185, 1.3158183000050485, 1.3338309999671765, 1.3494874999742024, 1.3671285000164062, 1.3837709999643266, 1.401286699983757, 1.4173497000010684, 1.4345055000158027, 1.449814099993091, 1.4652013999875635, 1.4807767000165768]
S05;17;0;0;1;False;1000;True;;8;-117.58200480577973;drag;L;-3.2598708;-6.7181687;-115.88;7.47;1.3641158999525942;1.364213099994231;1685538358.884719;1685538358.8889377;1685538359.643132;1685538360.1444166;1685538361.1288955;1685538362.4929674;[0.0, 0.0, 0.0, 0.0, 0.0, 0.0, 0.0, 0.0, 0.0, 0.0, 0.0, 0.0, 0.0, 0.0, 0.0, 0.0, 0.0, 0.0, 0.0, 0.0, 0.0, 0.0, 0.0, 0.0, 0.0, 0.0, 0.0, 0.0, 0.0, 0.0, 0.0, 0.0, 0.0, 0.0, 0.0, 0.0, 0.0, -0.1133868, -0.19842692, -0.36850712, -0.59528077, -0.76536095, -0.93544114, -1.1338681, -1.332295, -1.417335, -1.5874153, -1.7574955, -2.0409625, -2.2393894, -2.4945097, -2.57955, -2.66459, -2.7496302, -2.7779768, -2.83467, -2.8913634, -2.9764037, -3.0330973, -3.0330973, -3.0897903, -3.1181371, -3.146484, -3.1748307, -3.2031772, -3.2031772, -3.2031772, -3.2598708, -3.2598708, -3.2598708, -3.2598708, -3.2598708, -3.2598708, -3.2598708, -3.2598708, -3.2598708, -3.2598708, -3.2598708, -3.2598708, -3.2598708, -3.2598708];[0.0, 0.0, 0.0, 0.0, 0.0, 0.0, 0.0, 0.0, 0.0, 0.0, 0.0, 0.0, 0.0, 0.0, 0.0, 0.0, 0.0, 0.0, 0.0, 0.0, 0.0, 0.0, 0.0, 0.0, 0.0, 0.0, 0.0, 0.0, 0.0, 0.0, 0.0, 0.0, 0.0, 0.0, 0.0, 0.0, 0.0, -0.14173351, -0.3401604, -0.6236274, -1.1055214, -1.3606416, -1.6724553, -2.0976558, -2.466163, -2.6362433, -3.0330973, -3.3732576, -4.0535784, -4.563819, -5.130753, -5.3575263, -5.4992604, -5.697687, -5.811074, -5.9528074, -6.1228876, -6.2362742, -6.4063544, -6.4630475, -6.5197415, -6.6047816, -6.6614747, -6.6614747, -6.6898212, -6.7181687, -6.7181687, -6.7181687, -6.7181687, -6.7181687, -6.7181687, -6.7181687, -6.7181687, -6.7181687, -6.7181687, -6.7181687, -6.7181687, -6.7181687, -6.7181687, -6.7181687, -6.7181687];[0.004700199991930276, 0.03117129998281598, 0.05175580002833158, 0.06661400001030415, 0.08448999997926876, 0.0996195999905467, 0.1191112999804318, 0.13332550000632182, 0.15072029997827485, 0.16662949998863041, 0.1849684999906458, 0.1987799999769777, 0.21732820000033826, 0.23414399998728186, 0.2508679999737069, 0.26698979997308925, 0.2841033000149764, 0.3010601000278257, 0.31819249998079613, 0.3330608999822289, 0.35020689998054877, 0.3662635000073351, 0.3836643000249751, 0.39943719998700544, 0.4184487999882549, 0.4328434999915771, 0.45174970000516623, 0.4662504000007175, 0.48308939998969436, 0.5002234000130557, 0.5171890999772586, 0.5339184000040404, 0.5501174000091851, 0.5667133000097238, 0.5834829999948852, 0.6006488000275567, 0.6170268999994732, 0.6347061999840662, 0.6498630000278354, 0.6662844999809749, 0.6832286000135355, 0.7005336000001989, 0.7157790000201203, 0.7328927000053227, 0.7526686000055633, 0.7658276000292972, 0.7824909000191838, 0.7983543999725953, 0.8167791999876499, 0.8329348000115715, 0.8516954000224359, 0.8662099000066519, 0.8833610999863595, 0.900680500024464, 0.9167799000279047, 0.9339321000152268, 0.9509464000002481, 0.9672463000169955, 0.9859970000106841, 0.9995178999961354, 1.0182491000159644, 1.0351681999745779, 1.0496484999894165, 1.0675621000118554, 1.0840126000111923, 1.0984358999994583, 1.1166307000094093, 1.133411300019361, 1.1491098999977112, 1.1656710000243038, 1.1841355999931693, 1.1997437999816611, 1.2178777999943122, 1.2333723999909125, 1.2501476000179537, 1.2661722999764606, 1.283392500015907, 1.3002989999949932, 1.316672999993898, 1.3321684999973513, 1.3500258999993093]
S05;18;0;0;1;False;3000;True;;8;63.474167021340335;drag;L;3.0897903;5.527607;60.8;6.33;1.2971202000044286;1.2972245999844745;1685538363.3248599;1685538363.3388267;1685538364.0938263;1685538364.5946176;1685538367.5954974;1685538368.892045;[0.0, 0.0, 0.0, 0.0, 0.0, 0.0, 0.0, 0.0, 0.0, 0.0, 0.0, 0.0, 0.0, 0.0, 0.0, 0.0, 0.0, 0.0, 0.0, 0.0, 0.0, 0.0, 0.0, 0.0, 0.0, 0.0, 0.0, 0.0, 0.0, 0.0, 0.0850401, 0.36850712, 1.0488279, 1.4740285, 2.0409625, 2.2677362, 2.381123, 2.5228565, 2.6078966, 2.6929367, 2.7496302, 2.83467, 2.9764037, 3.0614438, 3.0897903, 3.1181371, 3.146484, 3.1748307, 3.1748307, 3.1748307, 3.146484, 3.1181371, 3.1181371, 3.1181371, 3.0897903, 3.0897903, 3.0897903, 3.0897903, 3.0897903, 3.0897903, 3.1181371, 3.1181371, 3.1181371, 3.1181371, 3.1181371, 3.1181371, 3.0897903, 3.0897903, 3.0897903, 3.0897903, 3.0897903, 3.0897903, 3.0897903, 3.0897903, 3.0897903, 3.0897903, 3.0897903];[0.0, 0.0, 0.0, 0.0, 0.0, 0.0, 0.0, 0.0, 0.0, 0.0, 0.0, 0.0, 0.0, 0.0, 0.0, 0.0, 0.0, 0.0, 0.0, 0.0, 0.0, 0.0, 0.0, 0.0, 0.0, 0.0, 0.0, 0.0, 0.0, 0.0, 0.1700802, 0.6236274, 1.7008021, 2.3527763, 3.1748307, 3.5716846, 3.7417645, 3.996885, 4.1386185, 4.252005, 4.365392, 4.5071254, 4.6772056, 4.762246, 4.818939, 4.875633, 4.960673, 4.960673, 4.9890194, 5.017366, 5.045713, 5.0740595, 5.1024065, 5.1024065, 5.1874466, 5.215793, 5.2441397, 5.2724867, 5.32918, 5.32918, 5.3575263, 5.41422, 5.4425664, 5.4709134, 5.4709134, 5.4992604, 5.527607, 5.527607, 5.527607, 5.527607, 5.527607, 5.527607, 5.527607, 5.527607, 5.527607, 5.527607, 5.527607];[0.005106700002215803, 0.03141860000323504, 0.05176689999643713, 0.06620940001448616, 0.08335709996754304, 0.10062909999396652, 0.11747649998869747, 0.13283409998985007, 0.15181319997645915, 0.165968100016471, 0.18423359998269007, 0.19783409999217838, 0.2176014999859035, 0.2323210000176914, 0.2518899000133388, 0.2657854999997653, 0.28267739998409525, 0.2999493000097573, 0.31645149999530986, 0.3324925000197254, 0.35037900001043454, 0.36679499997990206, 0.38274480000836775, 0.3994024000130594, 0.4165367999812588, 0.43289489997550845, 0.4505226999754086, 0.46663149999221787, 0.4832849000231363, 0.4995690999785438, 0.5169400000013411, 0.5319419999723323, 0.5507249999791384, 0.5654304000199772, 0.5857361999806017, 0.5996862999745645, 0.6161189000122249, 0.6340240999707021, 0.6489407999906689, 0.6653807999682613, 0.6819376000203192, 0.698483899992425, 0.71973930002423, 0.7330608000047505, 0.7502700000186451, 0.7660214999923483, 0.7829664999735542, 0.8001188000198454, 0.8152836000081152, 0.832078300009016, 0.8518735999823548, 0.8658661000081338, 0.8825778000173159, 0.8979862999985926, 0.9157313000177965, 0.9322669999673963, 0.9501654999912716, 0.9657187999691814, 0.9858989000204019, 0.9979014999698848, 1.0150783999706618, 1.0320638999692164, 1.049229700001888, 1.0653018999728374, 1.0823659999878146, 1.0985505999997258, 1.1175506999716163, 1.1320667999680154, 1.1497927000164054, 1.1664489000104368, 1.1821596000227146, 1.1995393999968655, 1.21694379998371, 1.2328353999764659, 1.250526699994225, 1.264919799985364, 1.281854700006079]
S05;19;0;0;1;False;1000;True;;8;-97.02653351249782;drag;L;-1.1622148;-7.341796;-99.0;7.43;1.348878099990543;1.348949300008826;1685538369.6599135;1685538369.6729395;1685538370.4257946;1685538370.9262946;1685538371.909562;1685538373.2585344;[0.0, 0.0, 0.0, 0.0, 0.0, 0.0, 0.0, 0.0, 0.0, 0.0, 0.0, 0.0, 0.0, 0.0, 0.0, 0.0, 0.0, 0.0, 0.0, 0.0, 0.0, 0.0, 0.0, 0.0, 0.0, 0.0, 0.0, 0.0, 0.0, 0.0, -0.0850401, -0.36850712, -0.48189393, -0.6236274, -0.6803208, -0.76536095, -0.8220543, -0.87874776, -0.9070944, -0.93544114, -0.96378785, -0.96378785, -0.96378785, -0.96378785, -0.96378785, -0.96378785, -0.96378785, -0.9921345, -0.9921345, -0.9921345, -1.0204812, -1.0204812, -1.0204812, -1.0204812, -1.0204812, -1.0488279, -1.0488279, -1.0488279, -1.0771747, -1.1055214, -1.1055214, -1.1055214, -1.1338681, -1.1338681, -1.1622148, -1.1622148, -1.1622148, -1.1622148, -1.1622148, -1.1622148, -1.1622148, -1.1622148, -1.1622148, -1.1622148, -1.1622148, -1.1622148, -1.1622148, -1.1622148, -1.1622148, -1.1622148, -1.1622148];[0.0, 0.0, 0.0, 0.0, 0.0, 0.0, 0.0, 0.0, 0.0, 0.0, 0.0, 0.0, 0.0, 0.0, 0.0, 0.0, 0.0, 0.0, 0.0, 0.0, 0.0, 0.0, 0.0, 0.0, 0.0, 0.0, 0.0, 0.0, 0.0, 0.0, -0.76536095, -2.4094696, -3.0047503, -3.7417645, -4.081925, -4.4504323, -4.762246, -5.130753, -5.32918, -5.5843005, -5.896114, -6.094541, -6.292968, -6.434701, -6.6047816, -6.7181687, -6.8032084, -6.831555, -6.888248, -6.888248, -6.9165955, -6.9165955, -6.944942, -7.0016356, -7.029982, -7.1150217, -7.1717157, -7.2000623, -7.2567554, -7.285102, -7.285102, -7.313449, -7.313449, -7.313449, -7.341796, -7.341796, -7.341796, -7.341796, -7.341796, -7.341796, -7.341796, -7.341796, -7.341796, -7.341796, -7.341796, -7.341796, -7.341796, -7.341796, -7.341796, -7.341796, -7.341796];[0.0034468999947421253, 0.01684460003161803, 0.03565199999138713, 0.05061879998538643, 0.06770389998564497, 0.08375190000515431, 0.10244450002210215, 0.11849850002909079, 0.13627670001005754, 0.1512380000203848, 0.1683939000358805, 0.1840123999863863, 0.20119709998834878, 0.21741280000424013, 0.23525359999621287, 0.25101920001907274, 0.2688761000172235, 0.284728400001768, 0.30123290000483394, 0.31764150003436953, 0.3367998999892734, 0.35150510002858937, 0.36817850003717467, 0.38356570003088564, 0.4006859000073746, 0.41732629999751225, 0.43554600002244115, 0.4506247999961488, 0.4676956000039354, 0.48363490001065657, 0.5013915000017732, 0.5185373999993317, 0.5347207000013441, 0.554327399993781, 0.5681922000367194, 0.5835483000264503, 0.6014314999920316, 0.6169951999909244, 0.6352934000315145, 0.6502322999876924, 0.6672074000234716, 0.6835744000272825, 0.7019629999995232, 0.7172996000153944, 0.7347184999962337, 0.7510699999984354, 0.7681864000041969, 0.7863710999954492, 0.8008021000423469, 0.817460399994161, 0.8356148999882862, 0.8500488999998197, 0.8685509000206366, 0.8835656000301242, 0.901896100025624, 0.9196345999953337, 0.9345946999965236, 0.9506714000017382, 0.9686748000094667, 0.9850832000374794, 1.0017779000336304, 1.0159640000201762, 1.0345735999871977, 1.050188800028991, 1.0671695999917574, 1.0833853000076488, 1.1016135000390932, 1.1189618000062183, 1.1361741999862716, 1.15113160002511, 1.1686268000048585, 1.1844358000089414, 1.2013052999973297, 1.217361900024116, 1.2356362999998964, 1.2517711000400595, 1.269908200018108, 1.284149700019043, 1.3015146999969147, 1.3172446000389755, 1.3333273000316694]
S05;20;0;0;1;False;3000;True;;8;58.87326704802141;drag;L;4.2803516;6.6898212;57.39;7.94;1.2665727999992669;1.2666478999890387;1685538374.0612242;1685538374.0719073;1685538374.8261957;1685538375.3279483;1685538378.3261695;1685538379.59297;[0.0, 0.0, 0.0, 0.0, 0.0, 0.0, 0.0, 0.0, 0.0, 0.0, 0.0, 0.0, 0.0, 0.0, 0.0, 0.0, 0.0, 0.0, 0.0, 0.0, 0.0, 0.0, 0.0, 0.0, 0.0, 0.0, 0.0, 0.0, 0.0, 0.0, 0.0, 0.2551203, 0.65197414, 1.1905615, 1.417335, 1.7008021, 1.8708823, 2.0976558, 2.211043, 2.2960827, 2.4094696, 2.66459, 2.8630168, 3.0897903, 3.2315238, 3.316564, 3.4016042, 3.4582977, 3.514991, 3.5433376, 3.5716846, 3.6567245, 3.7417645, 3.8268046, 3.996885, 4.0535784, 4.110272, 4.166965, 4.1953115, 4.1953115, 4.2236586, 4.252005, 4.252005, 4.2803516, 4.2803516, 4.2803516, 4.2803516, 4.2803516, 4.2803516, 4.2803516, 4.2803516, 4.2803516, 4.2803516, 4.2803516, 4.2803516, 4.2803516];[0.0, 0.0, 0.0, 0.0, 0.0, 0.0, 0.0, 0.0, 0.0, 0.0, 0.0, 0.0, 0.0, 0.0, 0.0, 0.0, 0.0, 0.0, 0.0, 0.0, 0.0, 0.0, 0.0, 0.0, 0.0, 0.0, 0.0, 0.0, 0.0, 0.0, 0.0, 0.3401604, 0.87874776, 1.6157619, 1.9275757, 2.3527763, 2.6362433, 2.9764037, 3.146484, 3.316564, 3.4582977, 3.8268046, 4.1386185, 4.4504323, 4.620512, 4.733899, 4.847286, 4.932326, 4.9890194, 5.045713, 5.130753, 5.300833, 5.4992604, 5.782727, 6.1228876, 6.292968, 6.378008, 6.5197415, 6.548088, 6.5764346, 6.633128, 6.6898212, 6.6898212, 6.6898212, 6.6898212, 6.6898212, 6.6898212, 6.6898212, 6.6898212, 6.6898212, 6.6898212, 6.6898212, 6.6898212, 6.6898212, 6.6898212, 6.6898212];[0.0044797000009566545, 0.0172562999650836, 0.033634699997492135, 0.05109189997892827, 0.06790189997991547, 0.08476030000019819, 0.10054609994404018, 0.11811999999918044, 0.13382849999470636, 0.151161499961745, 0.16700089996447787, 0.18375989998457953, 0.19988209998700768, 0.21804689994314685, 0.23305679997429252, 0.2514998999540694, 0.2668849999899976, 0.2842168999486603, 0.3003803999745287, 0.318764999974519, 0.3347620999556966, 0.35277159995166585, 0.3674620999954641, 0.3831951999454759, 0.40249139996012673, 0.41704079997725785, 0.43557519995374605, 0.45155549998162314, 0.4670048999832943, 0.48478569998405874, 0.5002726999809965, 0.5173663999885321, 0.5333277999889106, 0.5495495999930426, 0.566630199959036, 0.585194599989336, 0.5995758999488316, 0.6194415999925695, 0.6331509999581613, 0.6505886999657378, 0.6672184999915771, 0.6839688999461941, 0.7002019999781623, 0.7175669999560341, 0.7328970999806188, 0.752226599957794, 0.7660288999904878, 0.7847968999994919, 0.8030205999966711, 0.815975499979686, 0.8338867999846116, 0.8512925999821164, 0.8676434999797493, 0.8834607999888249, 0.9010380999534391, 0.9174550999887288, 0.9345467999810353, 0.9497929999488406, 0.9675876999972388, 0.9837459999835119, 1.0000652999733575, 1.0204596999683417, 1.0329032999579795, 1.0492499999818392, 1.0677367999451235, 1.0835903999977745, 1.1004483999568038, 1.1170398999820463, 1.1340979999513365, 1.150326699949801, 1.1680185999721289, 1.1844846999738365, 1.20097279996844, 1.2167606999864802, 1.2335404999903403, 1.2513604999985546]
S05;21;0;0;1;False;1000;True;;8;101.1248354631659;drag;L;-1.2756016;7.540222;99.6;7.65;1.330896599974949;1.3309910999960266;1685538380.456729;1685538380.4726825;1685538381.2265098;1685538381.7263162;1685538382.7112834;1685538384.0420918;[0.0, 0.0, 0.0, 0.0, 0.0, 0.0, 0.0, 0.0, 0.0, 0.0, 0.0, 0.0, 0.0, 0.0, 0.0, 0.0, 0.0, 0.0, 0.0, 0.0, 0.0, 0.0, 0.0, 0.0, 0.0, 0.0, 0.0, 0.0, 0.0, 0.0, -0.5102406, -0.85040104, -1.2756016, -1.4456817, -1.5874153, -1.7574955, -1.8425356, -1.9275757, -1.984269, -2.012616, -2.0693092, -2.0976558, -2.1543493, -2.182696, -2.182696, -2.182696, -2.211043, -2.211043, -2.211043, -2.211043, -2.211043, -2.182696, -2.1260026, -2.0693092, -2.012616, -1.9559225, -1.8708823, -1.7858423, -1.6441087, -1.5023751, -1.417335, -1.3889884, -1.332295, -1.332295, -1.3039483, -1.3039483, -1.2756016, -1.2756016, -1.2756016, -1.2756016, -1.2756016, -1.2756016, -1.2756016, -1.2756016, -1.2756016, -1.2756016, -1.2756016, -1.2756016, -1.2756016, -1.2756016];[0.0, 0.0, 0.0, 0.0, 0.0, 0.0, 0.0, 0.0, 0.0, 0.0, 0.0, 0.0, 0.0, 0.0, 0.0, 0.0, 0.0, 0.0, 0.0, 0.0, 0.0, 0.0, 0.0, 0.0, 0.0, 0.0, 0.0, 0.0, 0.0, 0.0, 1.2189082, 1.9559225, 2.8630168, 3.3449106, 3.7417645, 4.166965, 4.3937387, 4.733899, 4.9039793, 5.045713, 5.3575263, 5.527607, 5.8677673, 6.1228876, 6.321315, 6.491395, 6.6614747, 6.6898212, 6.7181687, 6.8032084, 6.8032084, 6.8599014, 6.888248, 6.888248, 6.9165955, 6.944942, 6.9732885, 7.029982, 7.1150217, 7.285102, 7.341796, 7.4551826, 7.483529, 7.483529, 7.5118756, 7.540222, 7.540222, 7.540222, 7.540222, 7.540222, 7.540222, 7.540222, 7.540222, 7.540222, 7.540222, 7.540222, 7.540222, 7.540222, 7.540222, 7.540222];[0.00396319996798411, 0.015178799978457391, 0.03229589998954907, 0.048918999964371324, 0.06528149999212474, 0.08175109996227548, 0.0990919999894686, 0.11570949997985736, 0.13392559997737408, 0.14947629999369383, 0.1679772000061348, 0.18383349996292964, 0.19914059998700395, 0.21466629998758435, 0.23268069996265694, 0.2486586999730207, 0.2667336000013165, 0.2826022999943234, 0.30092289997264743, 0.31637939997017384, 0.3334307000041008, 0.3499896000139415, 0.3664539000019431, 0.3837468000128865, 0.3997211999958381, 0.4166263999650255, 0.433496399957221, 0.4489721999852918, 0.46620749996509403, 0.48267569998279214, 0.49972510000225157, 0.5155278999591246, 0.5330592999816872, 0.5488331000087783, 0.5666196999954991, 0.5816798000014387, 0.6002419000142254, 0.6172865999978967, 0.631893299985677, 0.6494336999603547, 0.6665182000142522, 0.6821195000084117, 0.7006600999739021, 0.7146368999965489, 0.732736499980092, 0.7484692999860272, 0.765237299958244, 0.7821894999942742, 0.7983729999978095, 0.8145742999622598, 0.832010000012815, 0.849100699997507, 0.8661597999744117, 0.88168880000012, 0.898936599958688, 0.915856099978555, 0.9343371999566443, 0.9485398000106215, 0.966975299990736, 0.9814843999920413, 0.9999100000131875, 1.0182280999724753, 1.0317019000067376, 1.0489382999949157, 1.0674518999876454, 1.0820711000123993, 1.1025068999733776, 1.115143499977421, 1.1334250000072643, 1.1484490999719128, 1.1672837999649346, 1.1827869999688119, 1.199925999972038, 1.2160421999869868, 1.2329038999741897, 1.2481046000029892, 1.265350200003013, 1.281736999982968, 1.2986654000123963, 1.3145708999945782]
S05;22;0;0;1;False;3000;True;;8;-78.78507405468376;drag;L;1.4740285;-7.2000623;-78.43;7.35;1.416783900000155;1.4168717000284232;1685538384.7483177;1685538384.7544706;1685538385.5086133;1685538386.00963;1685538389.0093062;1685538390.4265838;[0.0, 0.0, 0.0, 0.0, 0.0, 0.0, 0.0, 0.0, 0.0, 0.0, 0.0, 0.0, 0.0, 0.0, 0.0, 0.0, 0.0, 0.0, 0.0, 0.0, 0.0, 0.0, 0.0, 0.0, 0.0, 0.0, 0.0, 0.0, 0.0, 0.0, 0.0, 0.0, 0.0, 0.0, 0.0, 0.0, 0.0, 0.0, 0.0, 0.0, 0.0, 0.3118137, 0.6236274, 0.93544114, 1.0771747, 1.2189082, 1.2756016, 1.332295, 1.3606416, 1.3606416, 1.417335, 1.4456817, 1.4740285, 1.5023751, 1.5307219, 1.5590686, 1.5874153, 1.6157619, 1.6157619, 1.6157619, 1.6157619, 1.5874153, 1.5874153, 1.5590686, 1.5307219, 1.5307219, 1.5307219, 1.5307219, 1.5307219, 1.5307219, 1.5307219, 1.5307219, 1.5023751, 1.4740285, 1.4740285, 1.4740285, 1.4740285, 1.4740285, 1.4740285, 1.4740285, 1.4740285, 1.4740285, 1.4740285, 1.4740285, 1.4740285];[0.0, 0.0, 0.0, 0.0, 0.0, 0.0, 0.0, 0.0, 0.0, 0.0, 0.0, 0.0, 0.0, 0.0, 0.0, 0.0, 0.0, 0.0, 0.0, 0.0, 0.0, 0.0, 0.0, 0.0, 0.0, 0.0, 0.0, 0.0, 0.0, 0.0, 0.0, 0.0, 0.0, 0.0, 0.0, 0.0, 0.0, 0.0, 0.0, 0.0, 0.0, -0.59528077, -1.1622148, -1.899229, -2.3244295, -2.83467, -3.0330973, -3.2598708, -3.4866443, -3.6567245, -3.968538, -4.2236586, -4.5071254, -4.7055526, -4.932326, -5.0740595, -5.2724867, -5.41422, -5.5843005, -5.782727, -5.924461, -6.037847, -6.2362742, -6.321315, -6.4630475, -6.5764346, -6.6614747, -6.774862, -6.831555, -6.888248, -6.944942, -7.0016356, -7.086675, -7.1717157, -7.2000623, -7.2000623, -7.2000623, -7.2000623, -7.2000623, -7.2000623, -7.2000623, -7.2000623, -7.2000623, -7.2000623, -7.2000623];[0.004167000006418675, 0.017209900019224733, 0.03409230004763231, 0.05105619999812916, 0.06817510002292693, 0.08430610003415495, 0.09950569999637082, 0.11653430003207177, 0.13551860000006855, 0.15054540004348382, 0.16827970003942028, 0.18335870001465082, 0.2002228000201285, 0.21747210004832596, 0.23517290002200752, 0.24966210004640743, 0.26622480002697557, 0.2853812000248581, 0.3013532000477426, 0.3188880000379868, 0.3344518000376411, 0.3517274000332691, 0.3684133000206202, 0.38432080001803115, 0.4009080000105314, 0.4169228000100702, 0.43378390005091205, 0.4497095000115223, 0.46803020004881546, 0.4834973000106402, 0.5014998000115156, 0.5171294000465423, 0.5361107000499032, 0.5487924000481144, 0.5668280000099912, 0.58407670003362, 0.6003823000355624, 0.6168957000481896, 0.6331888000131585, 0.651964400021825, 0.6666164000052959, 0.6832979000173509, 0.7011230000061914, 0.7171070000040345, 0.7344155000173487, 0.7527397000230849, 0.7686753000016324, 0.7834010000224225, 0.8003315000096336, 0.8164063000003807, 0.8361497000441886, 0.8500668000197038, 0.8681822000071406, 0.8836497000302188, 0.9005755000398494, 0.916694900020957, 0.9341954000410624, 0.9488816000521183, 0.9660098000313155, 0.9825856999959797, 0.9997075000428595, 1.0169961000210606, 1.0338492000009865, 1.0498592000221834, 1.0670431000180542, 1.0831988000427373, 1.1001861999975517, 1.1161959000164643, 1.1341065000160597, 1.1525406000437215, 1.1658441000035964, 1.1834847000427544, 1.201265300041996, 1.2163126000086777, 1.234071800019592, 1.2508816000190563, 1.2679546000435948, 1.2849851000355557, 1.2999511000234634, 1.317792100016959, 1.332929000025615, 1.3496134000015445, 1.367313600028865, 1.3824818000430241, 1.3993943000095896]
S05;23;0;0;1;False;1000;True;;8;-13.097137650525974;drag;L;6.1228876;-3.146484;-27.2;6.88;1.1852386000100523;1.1853328999713995;1685538391.2650714;1685538391.270599;1685538392.026925;1685538392.526635;1685538393.509126;1685538394.694444;[0.0, 0.0, 0.0, 0.0, 0.0, 0.0, 0.0, 0.0, 0.0, 0.0, 0.0, 0.0, 0.0, 0.0, 0.0, 0.0, 0.0, 0.0, 0.0, 0.0, 0.0, 0.0, 0.0, 0.0, 0.0, 0.0, 0.0, 0.0, 0.0, 0.0, 0.0, 0.0, 0.0, 0.0, 0.14173351, 0.6236274, 1.1338681, 1.5023751, 2.1543493, 2.6078966, 3.0614438, 3.5716846, 3.8551514, 4.252005, 4.478779, 4.7905927, 5.1024065, 5.5559535, 5.782727, 5.924461, 6.0095005, 6.0661945, 6.094541, 6.1228876, 6.151234, 6.151234, 6.151234, 6.151234, 6.1228876, 6.1228876, 6.1228876, 6.1228876, 6.1228876, 6.1228876, 6.1228876, 6.1228876, 6.1228876, 6.1228876, 6.1228876, 6.1228876, 6.1228876];[0.0, 0.0, 0.0, 0.0, 0.0, 0.0, 0.0, 0.0, 0.0, 0.0, 0.0, 0.0, 0.0, 0.0, 0.0, 0.0, 0.0, 0.0, 0.0, 0.0, 0.0, 0.0, 0.0, 0.0, 0.0, 0.0, 0.0, 0.0, 0.0, 0.0, 0.0, 0.0, 0.0, 0.0, -0.0850401, -0.28346702, -0.59528077, -0.76536095, -1.1338681, -1.3606416, -1.6157619, -1.9275757, -2.0976558, -2.3527763, -2.4945097, -2.66459, -2.83467, -3.0330973, -3.1181371, -3.1748307, -3.2031772, -3.2031772, -3.2031772, -3.2031772, -3.2031772, -3.2031772, -3.2031772, -3.1748307, -3.146484, -3.146484, -3.146484, -3.146484, -3.146484, -3.146484, -3.146484, -3.146484, -3.146484, -3.146484, -3.146484, -3.146484, -3.146484];[0.004254099971149117, 0.01897490001283586, 0.03391539998119697, 0.04982750001363456, 0.06839560001390055, 0.08483319997321814, 0.10237350000534207, 0.1177266999729909, 0.13601650000782683, 0.15034769999329, 0.169025800016243, 0.1841852000216022, 0.20053530001314357, 0.2167893999721855, 0.23662189999595284, 0.25059349997900426, 0.26696959999389946, 0.2853846999933012, 0.30095910001546144, 0.31936969998059794, 0.3347063999972306, 0.35250909999012947, 0.3671765999752097, 0.386634900001809, 0.4012425999972038, 0.41772189998300746, 0.43333430000348017, 0.45235629996750504, 0.466415099974256, 0.4838148999842815, 0.4995956000057049, 0.5187976000015624, 0.5342941000126302, 0.551520699984394, 0.5672771999961697, 0.5837047999957576, 0.5986973000108264, 0.617236000020057, 0.6346308999927714, 0.6507799999671988, 0.6672982000163756, 0.6836631000041962, 0.7001372000086121, 0.7184858999680728, 0.7336009999853559, 0.7516027999809012, 0.7660970999859273, 0.784916799981147, 0.802552499982994, 0.8195768999867141, 0.8337472999701276, 0.851494200003799, 0.8665712000220083, 0.8863406999735162, 0.9011912000132725, 0.9185439000139013, 0.9340172000229359, 0.9513681000098586, 0.9682766000041738, 0.9847770999767818, 1.0007917999755591, 1.019207399978768, 1.0341464999946766, 1.0516377000021748, 1.0676480999682099, 1.0852550999843515, 1.1003527999855578, 1.1179723999812268, 1.1339488999801688, 1.1515845999820158, 1.1662395999883302]
S05;24;0;0;1;False;1000;True;;8;117.0333059150853;drag;L;-3.4866443;6.4063544;118.56;7.29;1.2023992000031285;1.2024765000096522;1685538396.097905;1685538396.1029253;1685538396.8576763;1685538397.3588817;1685538398.3402407;1685538399.5430582;[0.0, 0.0, 0.0, 0.0, 0.0, 0.0, 0.0, 0.0, 0.0, 0.0, 0.0, 0.0, 0.0, 0.0, 0.0, 0.0, 0.0, 0.0, 0.0, 0.0, 0.0, 0.0, 0.0, 0.0, 0.0, -0.28346702, -0.6236274, -0.79370767, -0.87874776, -1.0204812, -1.1905615, -1.332295, -1.6157619, -1.7574955, -1.8708823, -2.012616, -2.0976558, -2.2393894, -2.2960827, -2.3527763, -2.4378164, -2.4945097, -2.57955, -2.6362433, -2.7212832, -2.8063235, -2.8630168, -2.9197102, -2.9764037, -3.0047503, -3.0614438, -3.0614438, -3.1181371, -3.146484, -3.2315238, -3.2882173, -3.3449106, -3.3732576, -3.4016042, -3.4299507, -3.4582977, -3.4866443, -3.4866443, -3.4866443, -3.4866443, -3.4866443, -3.4866443, -3.4866443, -3.4866443, -3.4866443, -3.4866443, -3.4866443];[0.0, 0.0, 0.0, 0.0, 0.0, 0.0, 0.0, 0.0, 0.0, 0.0, 0.0, 0.0, 0.0, 0.0, 0.0, 0.0, 0.0, 0.0, 0.0, 0.0, 0.0, 0.0, 0.0, 0.0, 0.0, 0.48189393, 0.9921345, 1.2189082, 1.332295, 1.5307219, 1.7008021, 1.8708823, 2.3244295, 2.6929367, 3.0047503, 3.4299507, 3.6567245, 3.996885, 4.1386185, 4.2803516, 4.4504323, 4.5071254, 4.5921655, 4.762246, 4.875633, 5.0740595, 5.300833, 5.4709134, 5.7260337, 5.8394203, 5.9528074, 6.0095005, 6.037847, 6.094541, 6.151234, 6.151234, 6.2079277, 6.2362742, 6.292968, 6.3496614, 6.378008, 6.4063544, 6.4063544, 6.4063544, 6.4063544, 6.4063544, 6.4063544, 6.4063544, 6.4063544, 6.4063544, 6.4063544, 6.4063544];[0.003568100044503808, 0.020014200010336936, 0.036238100030459464, 0.05386410001665354, 0.07004180003423244, 0.0862605000147596, 0.10445869999239221, 0.11943090002750978, 0.13748600002145395, 0.15100930002517998, 0.16885260003618896, 0.18586339999455959, 0.20286120002856478, 0.22018669999670237, 0.237298300024122, 0.2522484000073746, 0.270654599997215, 0.2861517000128515, 0.3022680000285618, 0.32048660004511476, 0.335584300046321, 0.3534792000427842, 0.36943350004730746, 0.3853771000285633, 0.4027440000209026, 0.4194658999913372, 0.43604230001801625, 0.4515403000405058, 0.46910119999665767, 0.4868393000215292, 0.5018662000074983, 0.5186424000421539, 0.5358297000057064, 0.5513670000364073, 0.5691122999996878, 0.584882800001651, 0.6019658000441268, 0.621247700008098, 0.6352076000184752, 0.6521184000303037, 0.6699095999938436, 0.6856063000159338, 0.7030095999944024, 0.7189219000283629, 0.7376472000032663, 0.7519266000017524, 0.7694561000098474, 0.7849175000446849, 0.8021987000247464, 0.8182517000241205, 0.8385251000290737, 0.8518473000149243, 0.8695754000218585, 0.8854386000311933, 0.9025999000295997, 0.9189306000480428, 0.9360725000151433, 0.9512397000216879, 0.9699260999914259, 0.9855098000261933, 1.0036359000368975, 1.0195732000283897, 1.0360973000060767, 1.0522869999986142, 1.0700637000263669, 1.0862548000295646, 1.1027950000134297, 1.1203835000051185, 1.1365889000007883, 1.1524833000148647, 1.169481499993708, 1.1858682000311092]
S05;25;0;0;1;False;3000;True;;8;177.23745677852588;drag;L;-6.6898212;0.48189393;175.88;6.71;1.2978530999971554;1.2979389000101946;1685538400.3752956;1685538400.38715;1685538401.142106;1685538401.6423593;1685538404.641301;1685538405.9394329;[0.0, 0.0, 0.0, 0.0, 0.0, 0.0, 0.0, 0.0, 0.0, 0.0, 0.0, 0.0, 0.0, 0.0, 0.0, 0.0, 0.0, 0.0, 0.0, 0.0, 0.0, 0.0, 0.0, 0.0, 0.0, 0.0, 0.0, 0.0, 0.0, 0.0, 0.0, -1.1622148, -2.2393894, -2.66459, -3.0047503, -3.2598708, -3.4299507, -3.5716846, -3.770111, -3.8834982, -4.110272, -4.252005, -4.3937387, -4.620512, -4.762246, -4.960673, -5.045713, -5.1591, -5.2724867, -5.32918, -5.4425664, -5.527607, -5.5843005, -5.697687, -5.782727, -5.8677673, -6.0095005, -6.094541, -6.2079277, -6.264621, -6.321315, -6.378008, -6.4630475, -6.5197415, -6.548088, -6.633128, -6.6614747, -6.6898212, -6.6898212, -6.6898212, -6.6898212, -6.6898212, -6.6898212, -6.6898212, -6.6898212, -6.6898212, -6.6898212, -6.6898212];[0.0, 0.0, 0.0, 0.0, 0.0, 0.0, 0.0, 0.0, 0.0, 0.0, 0.0, 0.0, 0.0, 0.0, 0.0, 0.0, 0.0, 0.0, 0.0, 0.0, 0.0, 0.0, 0.0, 0.0, 0.0, 0.0, 0.0, 0.0, 0.0, 0.0, 0.0, 0.2551203, 0.53858733, 0.6803208, 0.79370767, 0.87874776, 0.9070944, 0.96378785, 0.9921345, 1.0204812, 1.0488279, 1.0488279, 1.0771747, 1.1055214, 1.1055214, 1.1055214, 1.1055214, 1.0771747, 1.0488279, 1.0204812, 0.96378785, 0.9070944, 0.85040104, 0.79370767, 0.76536095, 0.7086675, 0.6803208, 0.65197414, 0.65197414, 0.6236274, 0.59528077, 0.59528077, 0.56693405, 0.56693405, 0.53858733, 0.5102406, 0.48189393, 0.48189393, 0.48189393, 0.48189393, 0.48189393, 0.48189393, 0.48189393, 0.48189393, 0.48189393, 0.48189393, 0.48189393, 0.48189393];[0.004524100048001856, 0.018923500028904527, 0.03486110002268106, 0.05267000000458211, 0.06796580000082031, 0.08628010004758835, 0.10133130004396662, 0.11971050000283867, 0.13410660001682118, 0.15155190002406016, 0.16918430000077933, 0.18520880001597106, 0.1998437000438571, 0.2194761999999173, 0.23486480000428855, 0.2516907000099309, 0.2700324000325054, 0.28515820001484826, 0.30179739999584854, 0.31680620001861826, 0.3357624000054784, 0.35064080002484843, 0.3676393000059761, 0.38408909999998286, 0.4020120000350289, 0.41704170004231855, 0.4348749000346288, 0.4499542000121437, 0.4669325000140816, 0.48448899999493733, 0.5013564000255428, 0.518937700020615, 0.5347803000477143, 0.5510144000290893, 0.5675363000482321, 0.5839500000001863, 0.6008128999965265, 0.6170210000127554, 0.6356248999945819, 0.6516751000308432, 0.6683201999985613, 0.6833996000350453, 0.7016202000086196, 0.7176598000223748, 0.7348002000362612, 0.7534556000027806, 0.7689174000406638, 0.7867747000418603, 0.8009737000102177, 0.8179686000221409, 0.8379463000455871, 0.8498724999953993, 0.8683477000449784, 0.8859874000190757, 0.9005154000478797, 0.9183122999966145, 0.9350970000377856, 0.9513406000332907, 0.9700430000084452, 0.9823102000518702, 0.9992862000362948, 1.0152805999969132, 1.0321112000383437, 1.0491526999976486, 1.0663630000199191, 1.0818989000399597, 1.0997699000290595, 1.1164557000156492, 1.132762500026729, 1.1481101000099443, 1.1656679000006989, 1.181387500022538, 1.1987249000230804, 1.214731700019911, 1.2317135000484996, 1.248704900033772, 1.2659838999970816, 1.2820884000393562]
S05;26;0;0;1;False;3000;True;;8;-124.92898200186738;drag;L;-5.300833;-6.378008;-129.73;8.29;1.4130587999825366;1.4131445999955758;1685538406.7374074;1685538406.7535505;1685538407.5071084;1685538408.0105705;1685538411.0082664;1685538412.422038;[0.0, 0.0, 0.0, 0.0, 0.0, 0.0, 0.0, 0.0, 0.0, 0.0, 0.0, 0.0, 0.0, 0.0, 0.0, 0.0, 0.0, 0.0, 0.0, 0.0, 0.0, 0.0, 0.0, 0.0, 0.0, 0.0, 0.0, 0.0, 0.0, 0.0, 0.0, 0.0, -0.2267736, -1.1622148, -1.6441087, -2.182696, -2.4094696, -2.6362433, -2.83467, -3.1181371, -3.2598708, -3.5716846, -3.713418, -3.8834982, -4.081925, -4.166965, -4.252005, -4.365392, -4.5071254, -4.5921655, -4.733899, -4.818939, -4.9039793, -4.932326, -4.9890194, -5.0740595, -5.1024065, -5.1591, -5.215793, -5.2441397, -5.2441397, -5.2724867, -5.300833, -5.300833, -5.300833, -5.300833, -5.300833, -5.300833, -5.300833, -5.300833, -5.300833, -5.300833, -5.300833, -5.300833, -5.300833, -5.300833, -5.300833, -5.300833, -5.300833, -5.300833, -5.300833, -5.300833, -5.300833, -5.300833, -5.300833];[0.0, 0.0, 0.0, 0.0, 0.0, 0.0, 0.0, 0.0, 0.0, 0.0, 0.0, 0.0, 0.0, 0.0, 0.0, 0.0, 0.0, 0.0, 0.0, 0.0, 0.0, 0.0, 0.0, 0.0, 0.0, 0.0, 0.0, 0.0, 0.0, 0.0, 0.0, 0.0, -0.1700802, -0.93544114, -1.3606416, -1.9275757, -2.1543493, -2.381123, -2.6078966, -2.948057, -3.146484, -3.514991, -3.770111, -4.025232, -4.3086987, -4.4504323, -4.5921655, -4.762246, -4.932326, -5.0740595, -5.1874466, -5.300833, -5.32918, -5.3858733, -5.4425664, -5.527607, -5.5843005, -5.66934, -5.782727, -5.8394203, -5.924461, -6.0095005, -6.094541, -6.2362742, -6.292968, -6.3496614, -6.378008, -6.378008, -6.378008, -6.378008, -6.378008, -6.378008, -6.378008, -6.378008, -6.378008, -6.378008, -6.378008, -6.378008, -6.378008, -6.378008, -6.378008, -6.378008, -6.378008, -6.378008, -6.378008];[0.004011999990325421, 0.01611249998677522, 0.033541399985551834, 0.049360600009094924, 0.06867960002273321, 0.0827980000176467, 0.10109780001221225, 0.11710909998510033, 0.13463970000157133, 0.15151820000028238, 0.16740989999379963, 0.1840066000004299, 0.20015689998399466, 0.21658220002427697, 0.23264250002102926, 0.25193040003068745, 0.2657970000291243, 0.28364919999148697, 0.3001578000257723, 0.3173454999923706, 0.3342434000223875, 0.3519594999961555, 0.3669350999989547, 0.3863402000279166, 0.4003775999881327, 0.41871549998177215, 0.4332414999953471, 0.45059750002110377, 0.46650109998881817, 0.48397589998785406, 0.499709099996835, 0.517043600033503, 0.5326405999949202, 0.5492441999958828, 0.5672534999903291, 0.5854707999969833, 0.5998856000369415, 0.6164441999862902, 0.6335934000089765, 0.6499626000295393, 0.6665943000116386, 0.683713499980513, 0.700801600003615, 0.715025199984666, 0.7332673000055365, 0.7487248000106774, 0.7669085999950767, 0.7823407999821939, 0.8039480000152253, 0.8179566999897361, 0.8340494000003673, 0.8537296000286005, 0.8656920000212267, 0.8833269000169821, 0.9001311000320129, 0.9160501000005752, 0.934207400016021, 0.9490670000086538, 0.9661608000169508, 0.9837387999868952, 0.9998526999843307, 1.0165975000127219, 1.0333323000231758, 1.0501091000041924, 1.0661910999915563, 1.0832441000384279, 1.100920099997893, 1.1167782000266016, 1.134532099997159, 1.1520127999829128, 1.1658483000355773, 1.1836383999907412, 1.1994661000207998, 1.2171965999878012, 1.2343100000289269, 1.2497005999903195, 1.2674011000199243, 1.2832243000157177, 1.30228740000166, 1.3170547999907285, 1.3357115000253543, 1.349454200011678, 1.3679740999941714, 1.382118800014723, 1.399044900026638]
