subj;trial;block;prior;kappa;ct;delay;fix;keypressed;R;T_Angle;resp_mod;choice_x;choice_y;init_resp_angle;choiceAngle;choiceR;RT;MT;ts_b;ts_f;ts_p;ts_d;ts_r;ts_e;m_pos_x;m_pos_y;m_clock
S07;0;0;0;1;False;3000;True;;8;-86.91465664180761;drag;L;-0.7086675;-8.418971;-94.81;8.45;3.0469817999983206;3.0471121999435127;1685693564.5994146;1685693564.6134245;1685693565.3693268;1685693565.8700132;1685693568.8708482;1685693571.9171379;[0.0, -0.28346702, -0.3118137, -0.3401604, -0.3401604, -0.3401604, -0.3401604, -0.3118137, -0.28346702, -0.1133868, 0.48189393, 0.85040104, 1.0771747, 1.2189082, 1.3039483, 1.332295, 1.3889884, 1.3889884, 1.4456817, 1.5023751, 1.5590686, 1.6441087, 1.6724553, 1.7008021, 1.7574955, 1.7574955, 1.7574955, 1.7574955, 1.7291489, 1.5590686, 1.417335, 1.2189082, 1.1338681, 1.1055214, 1.0488279, 1.0204812, 0.96378785, 0.9070944, 0.85040104, 0.6803208, 0.53858733, 0.39685383, 0.3118137, 0.28346702, 0.2551203, 0.2267736, 0.19842692, 0.19842692, 0.19842692, 0.19842692, 0.2551203, 0.28346702, 0.42520052, 0.56693405, 0.6803208, 0.76536095, 0.85040104, 0.9070944, 0.9921345, 1.0488279, 1.1055214, 1.1622148, 1.1905615, 1.1905615, 1.2189082, 1.2189082, 1.2189082, 1.2189082, 1.2189082, 1.2189082, 1.2472548, 1.3889884, 1.6724553, 2.182696, 2.8913634, 3.2882173, 3.7417645, 3.9401915, 4.025232, 4.110272, 4.1386185, 4.1953115, 4.1953115, 4.2236586, 4.2236586, 4.2236586, 4.2236586, 4.2236586, 4.2236586, 4.2236586, 4.2236586, 4.2236586, 4.2236586, 4.2236586, 4.2236586, 4.2236586, 4.2236586, 4.2236586, 4.2236586, 4.2236586, 4.2236586, 4.2236586, 4.2236586, 4.2236586, 4.2236586, 4.2236586, 4.2236586, 4.2236586, 4.2236586, 4.2236586, 4.2236586, 4.2236586, 4.2236586, 4.2236586, 4.2236586, 4.2236586, 4.2236586, 4.2236586, 4.2236586, 4.2236586, 4.2236586, 4.2236586, 4.2236586, 4.2236586, 4.2236586, 4.2236586, 4.2236586, 4.2236586, 4.2236586, 4.2236586, 4.2236586, 4.2236586, 4.2236586, 4.2236586, 4.2236586, 4.2236586, 4.2236586, 4.2236586, 4.2236586, 4.2236586, 4.2236586, 4.2236586, 4.2236586, 4.2236586, 4.2236586, 4.2236586, 4.2236586, 4.2236586, 4.2236586, 3.1181371, 1.8425356, 1.417335, 1.1055214, 1.0204812, 0.9070944, 0.85040104, 0.85040104, 0.8220543, 0.76536095, 0.73701423, 0.6236274, 0.4535472, 0.2267736, 0.14173351, 0.0850401, 0.0283467, 0.0283467, 0.0, 0.0, -0.0283467, -0.0566934, -0.14173351, -0.2267736, -0.42520052, -0.5102406, -0.56693405, -0.59528077, -0.65197414, -0.6803208, -0.6803208, -0.7086675, -0.7086675];[0.0, 0.1700802, 0.19842692, 0.2267736, 0.2267736, 0.2267736, 0.2267736, 0.2267736, 0.2267736, 0.19842692, 0.0566934, 0.0, 0.0, 0.0, 0.0, -0.0283467, -0.0283467, -0.0283467, -0.0566934, -0.0850401, -0.1133868, -0.14173351, -0.1700802, -0.1700802, -0.19842692, -0.19842692, -0.2267736, -0.2267736, -0.2267736, -0.1700802, -0.14173351, -0.0566934, -0.0283467, 0.0, 0.0, 0.0, 0.0, 0.0, 0.0, 0.0283467, 0.0566934, 0.0566934, 0.0566934, 0.0566934, 0.0566934, 0.0566934, 0.0566934, 0.0566934, 0.0566934, 0.0566934, 0.0566934, 0.0566934, 0.0850401, 0.1133868, 0.1133868, 0.14173351, 0.1700802, 0.1700802, 0.1700802, 0.1700802, 0.1700802, 0.1700802, 0.1700802, 0.1700802, 0.1700802, 0.1700802, 0.1700802, 0.1700802, 0.1700802, 0.1700802, 0.1700802, 0.1700802, 0.19842692, 0.2267736, 0.2551203, 0.2551203, 0.19842692, 0.14173351, 0.1133868, 0.0850401, 0.0850401, 0.0566934, 0.0283467, 0.0283467, 0.0283467, 0.0283467, 0.0283467, 0.0283467, 0.0283467, 0.0283467, 0.0283467, 0.0283467, 0.0283467, 0.0283467, 0.0283467, 0.0283467, 0.0283467, 0.0283467, 0.0283467, 0.0283467, 0.0283467, 0.0283467, 0.0283467, 0.0283467, 0.0283467, 0.0283467, 0.0283467, 0.0283467, 0.0283467, 0.0283467, 0.0283467, 0.0283467, 0.0283467, 0.0283467, 0.0283467, 0.0283467, 0.0283467, 0.0283467, 0.0283467, 0.0283467, 0.0283467, 0.0283467, 0.0283467, 0.0283467, 0.0283467, 0.0283467, 0.0283467, 0.0283467, 0.0283467, 0.0283467, 0.0283467, 0.0283467, 0.0283467, 0.0283467, 0.0283467, 0.0283467, 0.0283467, 0.0283467, 0.0283467, 0.0283467, 0.0283467, 0.0283467, 0.0283467, 0.0283467, 0.0283467, 0.0283467, 0.0283467, 0.0283467, 0.0283467, -1.5590686, -3.3449106, -4.110272, -4.7905927, -5.1591, -5.527607, -5.75438, -5.981154, -6.1795807, -6.4063544, -6.548088, -6.8599014, -7.2567554, -7.7669964, -7.937076, -8.022117, -8.107157, -8.135503, -8.16385, -8.16385, -8.16385, -8.220544, -8.24889, -8.277237, -8.33393, -8.390623, -8.418971, -8.418971, -8.418971, -8.418971, -8.418971, -8.418971, -8.418971];[0.005838199984282255, 0.030880299978889525, 0.05204290000256151, 0.06693500000983477, 0.08439099998213351, 0.10032710002269596, 0.11746219999622554, 0.13377249997574836, 0.1510240000206977, 0.16803029994480312, 0.18407860002480447, 0.1993086999282241, 0.21777520002797246, 0.2338541999924928, 0.2496205000206828, 0.26819899992551655, 0.2841393999988213, 0.3001797000179067, 0.31702039996162057, 0.33441120001953095, 0.3508694999618456, 0.3663603999884799, 0.3845935999415815, 0.3997804999817163, 0.418161700014025, 0.43368319992441684, 0.4513336999807507, 0.46620100003201514, 0.48393500002566725, 0.5016681000124663, 0.516221099998802, 0.5349361000116915, 0.5504453999456018, 0.5670078999828547, 0.5853024999378249, 0.6004079999402165, 0.6203291999408975, 0.6327298999531195, 0.6514565999386832, 0.6686794999986887, 0.6838950000237674, 0.6996322999475524, 0.717121799942106, 0.7342087000142783, 0.7508982999715954, 0.7671377999940887, 0.783409500028938, 0.799759199959226, 0.8169672000221908, 0.8328789999941364, 0.8515369999222457, 0.8675537999952212, 0.8876023000339046, 0.9003873999463394, 0.9172921000281349, 0.9337907999288291, 0.950992799946107, 0.9664620999246836, 0.984004299971275, 1.0001253000227734, 1.0178919000318274, 1.0337400999851525, 1.051033900002949, 1.0672318999422714, 1.0846563000231981, 1.1005217999918386, 1.1179536000126973, 1.1329483999870718, 1.1514159999787807, 1.1667776999529451, 1.1852900999365374, 1.2034048999194056, 1.2163938999874517, 1.2334695999743417, 1.2507605999708176, 1.2667829999700189, 1.2868445999920368, 1.299747999990359, 1.3174362999852747, 1.3331291999202222, 1.351339399931021, 1.367576599936001, 1.383253199979663, 1.4000836999621242, 1.418485000031069, 1.4339036999735981, 1.4506182000041008, 1.466672100010328, 1.484844999969937, 1.4996801000088453, 1.5185560999670997, 1.5326129000168294, 1.5503807999193668, 1.5664080999558792, 1.5841328999958932, 1.5992825999855995, 1.6170078000286594, 1.6333136999746785, 1.6498806999297813, 1.666129400022328, 1.684040499967523, 1.7003354999469593, 1.7159236000152305, 1.7335424999473616, 1.7522271999623626, 1.7674713999731466, 1.7842757999897003, 1.8002617999445647, 1.818247599992901, 1.8324379000114277, 1.8512314999243245, 1.8665190000319853, 1.8851541000185534, 1.8998742999974638, 1.9170513999415562, 1.9339974999893457, 1.9508216999238357, 1.966753999935463, 1.9840395000064746, 2.0002715999726206, 2.0179726999485865, 2.034644200000912, 2.0506058000028133, 2.065582299954258, 2.0832136999815702, 2.1002012999961153, 2.1169273999985307, 2.133311599958688, 2.1508913999423385, 2.1664182000095025, 2.184086399967782, 2.1990520999534056, 2.2174404999241233, 2.233669599983841, 2.2509722999529913, 2.2679757999721915, 2.285407099989243, 2.3001212999224663, 2.3167534000240266, 2.3317076999228448, 2.3503831999842077, 2.3662051999708638, 2.3843758000293747, 2.4011635000351816, 2.417664899956435, 2.4337530999910086, 2.4503385999705642, 2.4657081000041217, 2.4834791999310255, 2.499377700034529, 2.5160566000267863, 2.532838699989952, 2.551150399958715, 2.566487199976109, 2.5862290000077337, 2.6000811000121757, 2.617051800014451, 2.633078799932264, 2.649190100026317, 2.6693113999208435, 2.6841919999569654, 2.6995039000175893, 2.7189368000254035, 2.734017299953848, 2.7515673999441788, 2.7681173000019044, 2.783118100021966, 2.8037840999895707, 2.8159473999403417, 2.8334728999761865, 2.853114499943331, 2.8670330999884754, 2.8847579000284895, 2.900985899963416, 2.9159169000340626, 2.931879699928686, 2.948111000005156, 2.9647301000077277, 2.982004199991934, 2.9978969999356195, 3.015352600021288, 3.031300999922678]
S07;1;0;0;1;False;1000;True;;8;78.50930143780973;drag;L;3.1181371;7.880383;68.41;8.47;0.8855234000366181;0.885611700010486;1685693572.7392492;1685693572.7472687;1685693573.5025485;1685693574.0032012;1685693574.9852297;1685693575.871115;[0.0, 0.0, 0.0, 0.0, 0.0, 0.0, 0.0, 0.0, 0.0, -0.2267736, -0.4535472, -0.56693405, -0.6236274, -0.65197414, -0.65197414, -0.65197414, -0.65197414, -0.65197414, -0.56693405, -0.19842692, 0.0850401, 0.39685383, 0.48189393, 0.56693405, 0.59528077, 0.6236274, 0.6803208, 0.96378785, 1.3889884, 2.1543493, 2.4378164, 2.6362433, 2.7779768, 2.948057, 3.0047503, 3.0614438, 3.0897903, 3.1181371, 3.1181371, 3.1181371, 3.1181371, 3.1181371, 3.1181371, 3.1181371, 3.1181371, 3.1181371, 3.1181371, 3.1181371, 3.1181371, 3.1181371, 3.1181371, 3.1181371, 3.1181371];[0.0, 0.0, 0.0, 0.0, 0.0, 0.0, 0.0, 0.0, 0.0, 1.1055214, 2.4945097, 3.798458, 4.3937387, 4.620512, 4.648859, 4.6772056, 4.6772056, 4.7905927, 4.932326, 5.697687, 6.491395, 7.2000623, 7.4551826, 7.5685697, 7.6536093, 7.681956, 7.710303, 7.795343, 7.795343, 7.7669964, 7.7669964, 7.7669964, 7.82369, 7.82369, 7.8520365, 7.8520365, 7.880383, 7.880383, 7.880383, 7.880383, 7.880383, 7.880383, 7.880383, 7.880383, 7.880383, 7.880383, 7.880383, 7.880383, 7.880383, 7.880383, 7.880383, 7.880383, 7.880383];[0.004703499958850443, 0.018226400017738342, 0.03407789999619126, 0.05132840003352612, 0.06744540005456656, 0.08609680004883558, 0.10113099997397512, 0.11890380003023893, 0.1358789000660181, 0.15252939995843917, 0.16888350003864616, 0.18491650000214577, 0.20090629998594522, 0.22042300004977733, 0.23326849995646626, 0.25367390003520995, 0.26674470002762973, 0.28409329999703914, 0.3007476000348106, 0.3186136999865994, 0.33389750006608665, 0.35384520003572106, 0.36702130001503974, 0.38588369998615235, 0.40182170004118234, 0.41766000003553927, 0.43675390002317727, 0.4507570000132546, 0.4702496000099927, 0.48696680006105453, 0.5017609000205994, 0.5199041999876499, 0.5339486000593752, 0.5520745000103489, 0.5689787999726832, 0.5861366000026464, 0.6001182000618428, 0.6203296000603586, 0.6333442999748513, 0.6539890000130981, 0.6684695000294596, 0.6857493000570685, 0.7013785999733955, 0.7186765000224113, 0.7338457000441849, 0.7517796000465751, 0.7695122000295669, 0.7872089999727905, 0.8010186000028625, 0.8184280999703333, 0.8347152000060305, 0.8519971000496298, 0.8681402000365779]
S07;2;0;0;1;False;1000;True;;8;153.6031536378608;drag;L;-6.5764346;3.514991;151.88;7.46;1.5152545000892133;1.5154642999405041;1685693576.7201715;1685693576.73067;1685693577.486794;1685693577.9874892;1685693578.9688365;1685693580.4839983;[0.0, -0.0283467, -0.0283467, 0.3401604, 0.48189393, 0.5102406, 0.5102406, 0.5102406, 0.39685383, 0.3118137, 0.1700802, 0.0850401, 0.0, -0.1133868, -0.14173351, -0.2267736, -0.39685383, -0.53858733, -0.7086675, -0.93544114, -1.2189082, -1.4740285, -1.8708823, -2.6078966, -2.9197102, -3.2315238, -3.4582977, -3.6283777, -3.6283777, -3.6283777, -3.6283777, -3.6283777, -3.6283777, -3.6283777, -3.6283777, -3.6283777, -3.6283777, -3.6283777, -3.6283777, -3.6283777, -3.6283777, -3.6283777, -3.6283777, -5.811074, -6.4063544, -6.8599014, -7.0016356, -7.2000623, -7.285102, -7.426836, -7.5118756, -7.6252627, -7.681956, -7.710303, -7.7386494, -7.82369, -7.9087296, -7.937076, -7.9654226, -7.99377, -8.022117, -8.022117, -8.022117, -8.022117, -7.99377, -7.9087296, -7.7669964, -7.341796, -7.1150217, -6.944942, -6.888248, -6.8599014, -6.8032084, -6.8032084, -6.774862, -6.774862, -6.774862, -6.774862, -6.774862, -6.774862, -6.774862, -6.7465153, -6.7465153, -6.7181687, -6.6898212, -6.6898212, -6.6614747, -6.6614747, -6.633128, -6.5764346, -6.5764346];[0.0, 0.0283467, 0.1133868, 0.93544114, 1.2189082, 1.3606416, 1.417335, 1.4456817, 1.4740285, 1.4740285, 1.3889884, 1.3039483, 1.1905615, 1.0204812, 0.93544114, 0.85040104, 0.8220543, 0.8220543, 0.8220543, 0.87874776, 0.9921345, 1.1622148, 1.3039483, 1.5874153, 1.7008021, 1.7574955, 1.8425356, 1.8708823, 1.8708823, 1.8708823, 1.8708823, 1.8708823, 1.8708823, 1.8708823, 1.8708823, 1.8708823, 1.8708823, 1.8708823, 1.8708823, 1.8708823, 1.8708823, 1.8708823, 1.8708823, 2.7212832, 3.0897903, 3.316564, 3.4016042, 3.4866443, 3.5433376, 3.5716846, 3.6283777, 3.6850712, 3.713418, 3.7417645, 3.7417645, 3.770111, 3.8268046, 3.8551514, 3.8834982, 3.911845, 3.9401915, 3.9401915, 3.9401915, 3.9401915, 3.9401915, 3.9401915, 3.911845, 3.8551514, 3.8268046, 3.798458, 3.798458, 3.770111, 3.770111, 3.7417645, 3.7417645, 3.713418, 3.6850712, 3.6850712, 3.6850712, 3.6850712, 3.6850712, 3.6850712, 3.6850712, 3.6850712, 3.6567245, 3.6567245, 3.6283777, 3.6283777, 3.6000311, 3.5433376, 3.514991];[0.004154599970206618, 0.020944399992004037, 0.034142699907533824, 0.052581299911253154, 0.06796969997230917, 0.08503219997510314, 0.10338979994412512, 0.11835679993964732, 0.13408280001021922, 0.15070879994891584, 0.17004689993336797, 0.1849862999515608, 0.20181929995305836, 0.2183661999879405, 0.23515769990626723, 0.2514946999726817, 0.26752979995217174, 0.28534269996453077, 0.30136889999266714, 0.3184183998964727, 0.3365875999443233, 0.35084769991226494, 0.36813179997261614, 0.3861104999668896, 0.40120520000346005, 0.4177269999636337, 0.4349258999573067, 0.4518246999941766, 0.4678010999923572, 0.4847965999506414, 0.5022310999920592, 0.5204196999548003, 0.5351855999324471, 0.5519569999305531, 0.5679281000047922, 0.5852186999982223, 0.6007435999345034, 0.6182081999722868, 0.6341931999195367, 0.6521988000022247, 0.6677685999311507, 0.6845092999283224, 0.7010354999219999, 0.7172064000042155, 0.7345620999112725, 0.7518742999527603, 0.7693824999732897, 0.7869061999954283, 0.8020142999012023, 0.8193127999547869, 0.8353173999348655, 0.8510169999208301, 0.8683269999455661, 0.8842686999123544, 0.9019610999384895, 0.9216533999424428, 0.9346681999741122, 0.9514620999107137, 0.9693843999411911, 0.9853854000102729, 1.004810299957171, 1.0170145999873057, 1.0344639999093488, 1.0521551999263465, 1.0659488999517635, 1.084563799900934, 1.099921299959533, 1.1184259000001475, 1.1345294999191537, 1.1524276999989524, 1.1676102000055835, 1.185960599919781, 1.2004233999177814, 1.218922199914232, 1.236167199909687, 1.250829799915664, 1.2682412998983636, 1.2862013999838382, 1.3003847999498248, 1.3189695999026299, 1.3338055999483913, 1.3512799999443814, 1.3672682999167591, 1.3853525999002159, 1.4016479999991134, 1.4196694999700412, 1.434744599973783, 1.452551299938932, 1.468315799953416, 1.484813499962911, 1.5020423999521881]
S07;3;0;0;1;False;3000;True;;8;-165.87237771830667;drag;L;-5.2724867;-2.182696;-157.51;5.71;1.8829423000570387;1.8831585999578238;1685693581.2940178;1685693581.3145247;1685693582.0694757;1685693582.5723617;1685693585.568689;1685693587.451637;[0.0, -0.0283467, -0.0283467, -0.0283467, 0.0566934, 3.4866443, 5.981154, 8.447317, 12.330815, 14.400125, 15.619033, 15.760766, 15.760766, 15.760766, 15.64738, 13.3796425, 10.261506, 8.617397, 6.548088, 5.5559535, 4.818939, 4.1953115, 4.025232, 3.8834982, 3.5716846, 3.0614438, 1.899229, 0.2551203, -0.3401604, -0.87874776, -1.2189082, -1.2189082, -1.2189082, -1.2189082, -1.2189082, -1.2189082, -1.2189082, -1.2189082, -1.2189082, -1.2189082, -1.2189082, -1.2189082, -1.2189082, -1.2189082, -2.9197102, -4.1953115, -5.6409936, -6.1795807, -6.6047816, -6.6898212, -6.7465153, -6.774862, -6.8032084, -6.831555, -6.831555, -6.9165955, -7.086675, -7.285102, -7.483529, -7.6252627, -7.6536093, -7.681956, -7.710303, -7.7386494, -7.7386494, -7.710303, -7.426836, -7.1150217, -6.831555, -6.633128, -6.548088, -6.5197415, -6.4630475, -6.434701, -6.434701, -6.4063544, -6.378008, -6.378008, -6.3496614, -6.3496614, -6.321315, -6.264621, -6.1795807, -6.151234, -6.1228876, -6.094541, -6.0661945, -6.0661945, -6.037847, -6.037847, -6.0095005, -6.0095005, -5.9528074, -5.924461, -5.8394203, -5.782727, -5.697687, -5.697687, -5.66934, -5.612647, -5.612647, -5.5843005, -5.5559535, -5.5559535, -5.4992604, -5.4709134, -5.4425664, -5.41422, -5.3858733, -5.3575263, -5.300833, -5.300833, -5.2724867];[0.0, -0.0283467, -0.0566934, -0.0566934, -0.0566934, 0.42520052, 0.9070944, 1.2756016, 1.7858423, 2.0976558, 2.3527763, 2.381123, 2.4094696, 2.4094696, 2.4094696, 2.211043, 2.0409625, 1.9559225, 1.8425356, 1.7574955, 1.7008021, 1.6441087, 1.6441087, 1.6441087, 1.7008021, 1.7574955, 1.7008021, 1.3606416, 1.1905615, 0.8220543, 0.5102406, 0.5102406, 0.5102406, 0.5102406, 0.5102406, 0.5102406, 0.5102406, 0.5102406, 0.5102406, 0.5102406, 0.5102406, 0.5102406, 0.5102406, 0.5102406, -0.36850712, -0.87874776, -1.3039483, -1.4740285, -1.6441087, -1.6724553, -1.7008021, -1.7008021, -1.7008021, -1.7291489, -1.7291489, -1.8708823, -2.012616, -2.2960827, -2.466163, -2.6078966, -2.6362433, -2.66459, -2.6929367, -2.6929367, -2.6929367, -2.6929367, -2.57955, -2.466163, -2.381123, -2.2960827, -2.2960827, -2.2677362, -2.2677362, -2.2677362, -2.2677362, -2.2677362, -2.2677362, -2.2677362, -2.2677362, -2.2677362, -2.2677362, -2.2960827, -2.3244295, -2.3244295, -2.3244295, -2.3527763, -2.3527763, -2.3527763, -2.3527763, -2.3527763, -2.3527763, -2.3527763, -2.3527763, -2.3527763, -2.3244295, -2.3244295, -2.2960827, -2.2960827, -2.2960827, -2.2960827, -2.2960827, -2.2960827, -2.2677362, -2.2677362, -2.2393894, -2.2393894, -2.211043, -2.182696, -2.182696, -2.182696, -2.182696, -2.182696, -2.182696];[0.004122799960896373, 0.017668299959041178, 0.03485910000745207, 0.05186919996049255, 0.07024519995320588, 0.0859801999758929, 0.10065199993550777, 0.11753249994944781, 0.13487549999263138, 0.15147819998674095, 0.17029909999109805, 0.18424019997473806, 0.20046379999257624, 0.2162596998969093, 0.23578049999196082, 0.2521180999465287, 0.2681978999171406, 0.2839614999247715, 0.3043280999409035, 0.3169311999808997, 0.3352134999586269, 0.3531941999681294, 0.36916249990463257, 0.3856526999734342, 0.40146889991592616, 0.4173232999164611, 0.4351879999740049, 0.45104499999433756, 0.46842970000579953, 0.48436599993146956, 0.5009331000037491, 0.5176178999245167, 0.5357619998976588, 0.5522373999701813, 0.5684001999907196, 0.5841726999497041, 0.6008649999275804, 0.6186288999160752, 0.6349755999399349, 0.6522677999455482, 0.669438699958846, 0.68523949990049, 0.702523999963887, 0.7179443999193609, 0.7353851000079885, 0.7506959999445826, 0.7680174999404699, 0.7856930999550968, 0.8034019999904558, 0.8172939999494702, 0.8374156999634579, 0.8513776999898255, 0.8686929999385029, 0.8851354999933392, 0.9017596999183297, 0.9219494999852031, 0.9342575999908149, 0.950584499980323, 0.9693827999290079, 0.9835263999411836, 1.000996199902147, 1.017232299898751, 1.0345671999966726, 1.0522574000060558, 1.0682176999980584, 1.0840096999891102, 1.103762699989602, 1.1168933999724686, 1.1356022999389097, 1.1537512999493629, 1.168456699931994, 1.1847824999131262, 1.2024395999033004, 1.2185221000108868, 1.2355449999449775, 1.250645799911581, 1.267949500004761, 1.2846578999888152, 1.301361299934797, 1.317114599980414, 1.335083399899304, 1.3504871999612078, 1.3712546000024304, 1.3841020999243483, 1.4032695000059903, 1.4197291999589652, 1.4338252999586985, 1.4505003999220207, 1.4690119998995215, 1.484275999944657, 1.5047227999893948, 1.5186378000071272, 1.5359767999034375, 1.5515506999799982, 1.5688636999111623, 1.5866825999692082, 1.6014615999301895, 1.6170184999937192, 1.635789499967359, 1.651055899914354, 1.668257899931632, 1.6836553999455646, 1.7022175999591127, 1.7177978999679908, 1.7359832999063656, 1.7501942999660969, 1.7687792999204248, 1.7837392999790609, 1.802288300008513, 1.8168937999289483, 1.8361340999836102, 1.8509401999181136, 1.8688263999065384]
S07;4;0;0;1;False;3000;True;;8;-156.23558974235203;drag;L;-5.811074;-3.1181371;-151.78;6.59;1.732313200016506;1.7323861999902874;1685693588.221463;1685693588.2305646;1685693588.9865885;1685693589.488327;1685693592.485316;1685693594.2181582;[0.0, 0.0, 0.0, 0.0, 0.0, 0.0, 0.0, 0.0, 0.0, 0.0, 0.0, 0.0, 0.0, 0.0, 0.0, 0.0, 0.0, 0.0, 0.0, 0.0, 0.0, 0.0, 0.0, 0.0, 0.0, 0.0, 0.0, 0.0, 0.0, 0.0, 0.0, 0.0, 0.0, 0.0, 0.0, -0.2551203, -0.85040104, -1.6441087, -2.0409625, -2.381123, -2.7212832, -2.9197102, -3.0614438, -3.2882173, -3.4016042, -3.514991, -3.6567245, -3.798458, -4.110272, -4.337045, -4.563819, -4.9039793, -5.1024065, -5.32918, -5.4709134, -5.5843005, -5.811074, -5.981154, -6.151234, -6.4063544, -6.5197415, -6.633128, -6.7181687, -6.774862, -6.8032084, -6.831555, -6.8599014, -6.8599014, -6.8599014, -6.8599014, -6.831555, -6.8032084, -6.6898212, -6.5764346, -6.491395, -6.3496614, -6.292968, -6.2362742, -6.1795807, -6.1228876, -6.094541, -6.094541, -6.0661945, -6.0661945, -6.037847, -6.0095005, -5.981154, -5.9528074, -5.896114, -5.896114, -5.8677673, -5.8677673, -5.8394203, -5.8394203, -5.8394203, -5.8394203, -5.8394203, -5.811074, -5.811074, -5.811074, -5.811074, -5.811074, -5.811074, -5.811074];[0.0, 0.0, 0.0, 0.0, 0.0, 0.0, 0.0, 0.0, 0.0, 0.0, 0.0, 0.0, 0.0, 0.0, 0.0, 0.0, 0.0, 0.0, 0.0, 0.0, 0.0, 0.0, 0.0, 0.0, 0.0, 0.0, 0.0, 0.0, 0.0, 0.0, 0.0, 0.0, 0.0, 0.0, 0.0, -0.1133868, -0.42520052, -0.85040104, -1.0488279, -1.1622148, -1.2472548, -1.3039483, -1.3039483, -1.3606416, -1.3889884, -1.3889884, -1.4456817, -1.5307219, -1.7291489, -1.899229, -2.012616, -2.2677362, -2.466163, -2.66459, -2.8063235, -2.9197102, -3.0897903, -3.2031772, -3.3449106, -3.514991, -3.6283777, -3.6567245, -3.7417645, -3.770111, -3.770111, -3.798458, -3.798458, -3.798458, -3.798458, -3.798458, -3.798458, -3.798458, -3.8268046, -3.8551514, -3.8551514, -3.8551514, -3.8551514, -3.8551514, -3.8551514, -3.8551514, -3.8551514, -3.8268046, -3.8268046, -3.798458, -3.770111, -3.7417645, -3.6283777, -3.5433376, -3.4866443, -3.4299507, -3.4016042, -3.3732576, -3.3449106, -3.316564, -3.2882173, -3.2882173, -3.2598708, -3.2315238, -3.2031772, -3.1748307, -3.146484, -3.146484, -3.1181371, -3.1181371];[0.004584199981763959, 0.016491299960762262, 0.033370999968610704, 0.048506799968890846, 0.06757219997234643, 0.08309229998849332, 0.10164459992665797, 0.11742139991838485, 0.13523329992312938, 0.15132499998435378, 0.1684376000193879, 0.18360779993236065, 0.20079289993736893, 0.21742639993317425, 0.234791100025177, 0.2512857000110671, 0.268327199970372, 0.2840748999733478, 0.3014036000240594, 0.31705469998996705, 0.3362094999756664, 0.35112359991762787, 0.36817269993480295, 0.38467419997323304, 0.4007024000165984, 0.41755489993374795, 0.43575720000080764, 0.45030429994221777, 0.4668531999923289, 0.48477350000757724, 0.5001135999336839, 0.5165709999855608, 0.5338908999692649, 0.548918699962087, 0.5674603999359533, 0.5842783999396488, 0.6005342999706045, 0.6198573999572545, 0.6321469999384135, 0.6498988999519497, 0.667224399978295, 0.6844166999217123, 0.7007611999288201, 0.71625109994784, 0.7359034999972209, 0.7498903999803588, 0.7672883999766782, 0.7828595999162644, 0.8010557999368757, 0.8153750000055879, 0.8343956000171602, 0.8496586999390274, 0.8672930999891832, 0.8849049999844283, 0.9002505999524146, 0.9163703999947757, 0.9344853999791667, 0.948990699951537, 0.967008400009945, 0.9825735000194982, 1.0006987999659032, 1.0172758999979123, 1.0344596999930218, 1.0500168999424204, 1.066110400017351, 1.0824787999736145, 1.1034217999549583, 1.1153840000042692, 1.1340222000144422, 1.1493310999358073, 1.1687694999855012, 1.1827731999801472, 1.201260200003162, 1.216079599922523, 1.234949699952267, 1.2495299000293016, 1.2677920999703929, 1.2833092999644578, 1.2994077999610454, 1.31642439996358, 1.3340159999206662, 1.3490701999980956, 1.368635999970138, 1.3825634999666363, 1.4005608999868855, 1.4172920000273734, 1.4330739999422804, 1.4501588999992236, 1.4681911999359727, 1.4818808999843895, 1.499968499992974, 1.5172460000030696, 1.5328915999270976, 1.5520115999970585, 1.566136799985543, 1.5832481000106782, 1.5994192999787629, 1.6151099000126123, 1.6349929999560118, 1.6486585999373347, 1.6665662999730557, 1.6841536000138149, 1.7005675999680534, 1.7161451999563724]
S07;5;0;0;1;False;1000;True;;8;27.120062942442736;drag;L;5.6409936;3.2315238;29.81;6.5;1.434452399960719;1.4345224000280723;1685693594.9100761;1685693594.9312499;1685693595.685646;1685693596.1861675;1685693597.1669996;1685693598.6013598;[0.0, 0.0, 0.0, 0.0, 0.0, 0.0, 0.0, 0.0, 0.0, 0.0, 0.0, 0.0, 0.0, 0.0, 0.0, 0.0, 0.0, 0.0, 0.0, 0.0, 0.0, 0.0, 0.0, 0.0, 0.0, 0.0, 0.0, 0.0, 0.0, 0.0, 0.0, 0.0, 0.0, 0.0, 0.0, 0.0, 1.3606416, 2.6362433, 3.2598708, 3.6850712, 4.166965, 4.4504323, 4.6772056, 4.932326, 5.1591, 5.2724867, 5.3858733, 5.527607, 5.75438, 5.8677673, 5.981154, 6.094541, 6.151234, 6.1795807, 6.1795807, 6.2079277, 6.2079277, 6.2079277, 6.2079277, 6.2079277, 6.2079277, 6.2079277, 6.2079277, 6.2079277, 6.2079277, 6.2079277, 6.2079277, 6.2079277, 6.151234, 6.1228876, 6.037847, 6.0095005, 5.981154, 5.924461, 5.896114, 5.8677673, 5.8677673, 5.8394203, 5.811074, 5.811074, 5.782727, 5.75438, 5.75438, 5.697687, 5.66934, 5.6409936];[0.0, 0.0, 0.0, 0.0, 0.0, 0.0, 0.0, 0.0, 0.0, 0.0, 0.0, 0.0, 0.0, 0.0, 0.0, 0.0, 0.0, 0.0, 0.0, 0.0, 0.0, 0.0, 0.0, 0.0, 0.0, 0.0, 0.0, 0.0, 0.0, 0.0, 0.0, 0.0, 0.0, 0.0, 0.0, 0.0, 0.59528077, 0.93544114, 1.1338681, 1.2756016, 1.5023751, 1.6441087, 1.7858423, 1.9275757, 2.0693092, 2.1543493, 2.2393894, 2.3527763, 2.5512033, 2.66459, 2.7779768, 2.8913634, 2.9197102, 2.9764037, 2.9764037, 2.9764037, 3.0047503, 3.0330973, 3.0330973, 3.0614438, 3.0614438, 3.0614438, 3.0897903, 3.0897903, 3.0897903, 3.0897903, 3.1181371, 3.1181371, 3.146484, 3.1748307, 3.1748307, 3.2031772, 3.2031772, 3.2031772, 3.2031772, 3.2031772, 3.2031772, 3.2031772, 3.2031772, 3.2031772, 3.2031772, 3.2031772, 3.2315238, 3.2315238, 3.2315238, 3.2315238];[0.004218200105242431, 0.018329999991692603, 0.034196300082840025, 0.05207289999816567, 0.06766070006415248, 0.08570570009760559, 0.10175940010230988, 0.11978040006943047, 0.13546030002180487, 0.15352620009798557, 0.16881590010598302, 0.18548220000229776, 0.20133050007279962, 0.2198045999975875, 0.2348338000010699, 0.2545930000487715, 0.2680080001009628, 0.2856379000004381, 0.30189660005271435, 0.31999119999818504, 0.3350740000605583, 0.3538046000758186, 0.36864100000821054, 0.38532510004006326, 0.40133990009780973, 0.4193865000270307, 0.43464120000135154, 0.4543426000745967, 0.4682825000490993, 0.4869013000279665, 0.501932300045155, 0.5198945000302047, 0.5355826000450179, 0.5525774999987334, 0.5681046000681818, 0.5863971000071615, 0.601609900011681, 0.6195034000556916, 0.6358766000485048, 0.6533254000823945, 0.6689683001022786, 0.6856752000749111, 0.7009262000210583, 0.7179236999945715, 0.7380213000578806, 0.753040200099349, 0.7674946000333875, 0.7859962000511587, 0.8034792999969795, 0.8185023000696674, 0.835952699999325, 0.8533775000832975, 0.8683584000682458, 0.8872852000640705, 0.9005953000159934, 0.9180852000135928, 0.9341581000480801, 0.9529648000607267, 0.9689542000414804, 0.9853318000677973, 1.0006516000721604, 1.0183320000069216, 1.0342607001075521, 1.0527229000581428, 1.0676855000201613, 1.086253400077112, 1.102496900013648, 1.118493500049226, 1.1357035000110045, 1.1519682999933138, 1.1674985000863671, 1.1846296000294387, 1.200634800014086, 1.218226500088349, 1.2384922000346705, 1.252994600101374, 1.2679981000255793, 1.2879676000447944, 1.3022495000623167, 1.3191845000255853, 1.336634400067851, 1.3537484999978915, 1.3688601000467315, 1.3857889000792056, 1.4020505000371486, 1.4198435000143945]
S07;6;0;0;1;False;1000;True;;8;104.82238511061209;drag;L;-2.83467;5.6409936;116.68;6.31;1.1489328000461683;1.149008399923332;1685693599.3592882;1685693599.362908;1685693600.1176686;1685693600.6199925;1685693601.6012702;1685693602.7501988;[0.0, 0.0, 0.0, 0.0, 0.0, 0.0, 0.0, 0.0, 0.0, 0.0, 0.0, 0.0, 0.0, 0.0, 0.0, 0.0, 0.0, 0.0, 0.0, 0.0, 0.0, 0.0, 0.0, 0.0, 0.0, 0.0, 0.0, 0.0, 0.0, -0.3401604, -0.85040104, -1.6441087, -1.984269, -2.2960827, -2.6929367, -2.8063235, -2.8913634, -3.0614438, -3.146484, -3.2315238, -3.2882173, -3.3449106, -3.3732576, -3.4299507, -3.4582977, -3.4582977, -3.4866443, -3.4866443, -3.4866443, -3.4866443, -3.4582977, -3.4299507, -3.316564, -3.1748307, -3.0614438, -3.0047503, -2.948057, -2.9197102, -2.8913634, -2.8630168, -2.8630168, -2.83467, -2.83467, -2.83467, -2.83467, -2.83467, -2.83467, -2.83467, -2.83467];[0.0, 0.0, 0.0, 0.0, 0.0, 0.0, 0.0, 0.0, 0.0, 0.0, 0.0, 0.0, 0.0, 0.0, 0.0, 0.0, 0.0, 0.0, 0.0, 0.0, 0.0, 0.0, 0.0, 0.0, 0.0, 0.0, 0.0, 0.0, 0.0, 0.7086675, 1.5307219, 2.7779768, 3.4016042, 3.911845, 4.563819, 4.7055526, 4.847286, 5.045713, 5.1591, 5.32918, 5.4425664, 5.527607, 5.612647, 5.66934, 5.782727, 5.811074, 5.8394203, 5.8394203, 5.8677673, 5.8677673, 5.8677673, 5.8677673, 5.8677673, 5.8677673, 5.8677673, 5.8677673, 5.8677673, 5.8677673, 5.8394203, 5.811074, 5.811074, 5.782727, 5.782727, 5.75438, 5.7260337, 5.697687, 5.66934, 5.66934, 5.6409936];[0.004378999932669103, 0.018646999960765243, 0.034985899925231934, 0.053593399934470654, 0.0688521999400109, 0.08638699993025512, 0.10183069994673133, 0.1195629999274388, 0.13552129990421236, 0.15317029994912446, 0.16915329999756068, 0.1858977999072522, 0.20011229999363422, 0.21849419991485775, 0.2356824999442324, 0.2530377999646589, 0.2675703999120742, 0.28526039991993457, 0.3017507999902591, 0.31823819992132485, 0.3345635998994112, 0.3519944999134168, 0.3684225999750197, 0.38601789996027946, 0.4014323999872431, 0.4186258999397978, 0.43559579993598163, 0.45221769995987415, 0.46741479996126145, 0.4850334998918697, 0.502710499917157, 0.5177187999943271, 0.5338502998929471, 0.5512051999103278, 0.5669474999886006, 0.5849093999713659, 0.600895999930799, 0.6180033999262378, 0.6362179999705404, 0.6515887998975813, 0.6678688999963924, 0.6877902999985963, 0.7007131999125704, 0.7178972999099642, 0.7362797999521717, 0.7513731999788433, 0.768746699905023, 0.785547599894926, 0.8019266999326646, 0.8179665999487042, 0.8340442999033257, 0.8530764998868108, 0.867339999997057, 0.8842099999310449, 0.903692299965769, 0.9177173998905346, 0.9328800999792293, 0.9504048998933285, 0.9673275999957696, 0.9840247998945415, 1.0011368999257684, 1.0178075999720022, 1.0345494999783114, 1.0502736999187618, 1.068361199926585, 1.0845712999580428, 1.0996265999274328, 1.1180262999841943, 1.1359710999531671]
S07;7;0;0;1;False;3000;True;;8;-9.883339285599249;drag;L;5.896114;-1.332295;-12.73;6.04;1.7807426999788731;1.780974099994637;1685693603.4616082;1685693603.4808342;1685693604.2360313;1685693604.7364147;1685693607.735906;1685693609.516617;[0.0, 0.0, 0.0, 0.0, 0.0, 0.0, 0.0, 0.0, 0.0, 0.0, 0.0, 0.0, 0.0, 0.0, 0.0, 0.0, 0.0, 0.0, 0.0, 0.0, 0.0, 0.0, 0.0, 0.0, 0.0, 0.0, 0.0, 0.0, 0.0, 0.0, 0.0, 0.0, 0.0, 0.0, 0.0, 0.0, 0.0, 0.0, 0.0, 0.0, 0.0, 0.0, 0.0, 0.0, 0.0, 0.0, 0.5102406, 1.3606416, 1.7858423, 1.9559225, 2.2677362, 2.5228565, 2.7496302, 3.2031772, 3.514991, 3.8834982, 4.110272, 4.2803516, 4.478779, 4.5354724, 4.620512, 4.648859, 4.6772056, 4.7055526, 4.762246, 4.875633, 5.2724867, 5.612647, 6.0095005, 6.2362742, 6.3496614, 6.4630475, 6.5197415, 6.548088, 6.5764346, 6.5764346, 6.6047816, 6.633128, 6.633128, 6.6614747, 6.6898212, 6.7181687, 6.7181687, 6.7181687, 6.7181687, 6.7181687, 6.7181687, 6.7181687, 6.7181687, 6.7181687, 6.6047816, 6.5197415, 6.4063544, 6.3496614, 6.264621, 6.2362742, 6.1795807, 6.1228876, 6.094541, 6.0661945, 6.0661945, 6.037847, 5.981154, 5.9528074, 5.924461, 5.896114];[0.0, 0.0, 0.0, 0.0, 0.0, 0.0, 0.0, 0.0, 0.0, 0.0, 0.0, 0.0, 0.0, 0.0, 0.0, 0.0, 0.0, 0.0, 0.0, 0.0, 0.0, 0.0, 0.0, 0.0, 0.0, 0.0, 0.0, 0.0, 0.0, 0.0, 0.0, 0.0, 0.0, 0.0, 0.0, 0.0, 0.0, 0.0, 0.0, 0.0, 0.0, 0.0, 0.0, 0.0, 0.0, 0.0, -0.2551203, -0.6236274, -0.79370767, -0.87874776, -1.0204812, -1.0771747, -1.1622148, -1.3039483, -1.417335, -1.5874153, -1.7008021, -1.7858423, -1.8708823, -1.9275757, -1.984269, -2.012616, -2.012616, -2.0409625, -2.0409625, -2.0409625, -1.984269, -1.9275757, -1.9275757, -1.899229, -1.8708823, -1.8425356, -1.8425356, -1.8425356, -1.8425356, -1.8141888, -1.7858423, -1.7291489, -1.6724553, -1.6157619, -1.5307219, -1.5023751, -1.4456817, -1.417335, -1.417335, -1.3889884, -1.3889884, -1.3889884, -1.3606416, -1.3606416, -1.332295, -1.3039483, -1.3039483, -1.3039483, -1.3039483, -1.3039483, -1.3039483, -1.3039483, -1.3039483, -1.3039483, -1.3039483, -1.3039483, -1.3039483, -1.3039483, -1.3039483, -1.332295];[0.005167499999515712, 0.030765000032261014, 0.05164840002544224, 0.06722130009438843, 0.08482520002871752, 0.09932740009389818, 0.11851589998696, 0.13351509999483824, 0.14970760000869632, 0.16691680008079857, 0.18358740000985563, 0.19939930003602058, 0.21763100009411573, 0.2327124000294134, 0.24881520005874336, 0.26525779999792576, 0.28330260002985597, 0.30074990005232394, 0.3157186000607908, 0.33264610008336604, 0.3512328000506386, 0.3669749000109732, 0.3849767000647262, 0.39942770008929074, 0.4177954000188038, 0.4328050999902189, 0.45093520008958876, 0.4672592000570148, 0.48590720002539456, 0.49958990002050996, 0.5177512000082061, 0.5337771000340581, 0.5515396000118926, 0.5673248000675812, 0.5851325000403449, 0.6001349000725895, 0.6173712000017986, 0.6337006000103429, 0.6506590000353754, 0.6667052000993863, 0.6845580000663176, 0.6995228000450879, 0.7175223000813276, 0.7343375000637025, 0.7504144000122324, 0.7664267000509426, 0.7843124000355601, 0.7993139000609517, 0.8164997000712901, 0.833290999988094, 0.8510006000287831, 0.8649141000350937, 0.8828470000298694, 0.9000951000489295, 0.9182173000881448, 0.9352112000342458, 0.9489176000934094, 0.9668803000822663, 0.9829211999895051, 0.9998234000522643, 1.019916700082831, 1.0335868000984192, 1.0529596999986097, 1.065854400047101, 1.0838080000830814, 1.0993512000422925, 1.1163120000855997, 1.1316621000878513, 1.152510500047356, 1.1660026999888942, 1.1830041999928653, 1.2015638999873772, 1.2164958000648767, 1.2349424000130966, 1.250896800076589, 1.2652391000883654, 1.28426920005586, 1.2998309000395238, 1.3172408000100404, 1.3322410000255331, 1.3500077000353485, 1.3677394000114873, 1.382539900019765, 1.3997144000604749, 1.4170031000394374, 1.4333357000723481, 1.4502669000066817, 1.466878000064753, 1.4834908000193536, 1.4996013999916613, 1.517351199989207, 1.5319537000032142, 1.5539406000170857, 1.5648298000451177, 1.5857847000006586, 1.6000341000035405, 1.616057900013402, 1.6321612000465393, 1.6496149000013247, 1.6677891000872478, 1.6838496000273153, 1.6983192000770941, 1.7171910000033677, 1.7324691000394523, 1.7498956000199541, 1.767166400095448]
S07;8;0;0;1;False;1000;False;;8;16.901920770315815;drag;L;nan;nan;nan;nan;0.0024631000123918056;0.002560199936851859;1685693610.3131707;1685693610.3293533;1685693611.0660207;1685693611.0670521;1685693611.0679657;1685693611.0700307;[];[];[]
S07;8;0;0;1;False;1000;True;;8;63.11148193558573;drag;L;4.7905927;5.5559535;49.23;7.34;1.6332465000450611;1.6333351000212133;1685693611.6404421;1685693611.6457727;1685693612.40127;1685693612.9031694;1685693613.8832893;1685693615.5169086;[0.0, 0.0, 0.0, 0.0, 0.0, 0.0, 0.0, 0.0, 0.0, 0.0, 0.0, 0.0, 0.0, 0.0, 0.0, 0.0, 0.0, 0.0, 0.0, 0.0, 0.0, 0.0, 0.0, 0.0, 0.0, 0.0, 0.0, 0.0, 0.0, 0.0, 0.0850401, 0.2551203, 0.73701423, 1.2756016, 1.7574955, 2.5228565, 2.83467, 3.0330973, 3.2031772, 3.2598708, 3.2882173, 3.3732576, 3.514991, 3.7417645, 3.7417645, 3.7417645, 3.7417645, 3.7417645, 3.7417645, 3.7417645, 3.7417645, 3.7417645, 3.7417645, 3.7417645, 3.7417645, 3.7417645, 3.7417645, 3.7417645, 3.7417645, 3.7417645, 4.0535784, 4.3937387, 4.5921655, 4.6772056, 4.733899, 4.762246, 4.7905927, 4.847286, 4.847286, 4.847286, 4.847286, 4.847286, 4.847286, 4.847286, 4.818939, 4.7905927, 4.7905927, 4.7905927, 4.7905927, 4.7905927, 4.7905927, 4.7905927, 4.7905927, 4.7905927, 4.7905927, 4.7905927, 4.7905927, 4.7905927, 4.7905927, 4.7905927, 4.7905927, 4.7905927, 4.7905927, 4.7905927, 4.7905927, 4.7905927, 4.7905927, 4.7905927];[0.0, 0.0, 0.0, 0.0, 0.0, 0.0, 0.0, 0.0, 0.0, 0.0, 0.0, 0.0, 0.0, 0.0, 0.0, 0.0, 0.0, 0.0, 0.0, 0.0, 0.0, 0.0, 0.0, 0.0, 0.0, 0.0, 0.0, 0.0283467, 0.0566934, 0.1133868, 0.28346702, 0.48189393, 1.1338681, 1.9275757, 2.6929367, 4.337045, 5.3575263, 6.094541, 6.831555, 7.086675, 7.228409, 7.426836, 7.795343, 8.362277, 8.362277, 8.362277, 8.362277, 8.362277, 8.362277, 8.362277, 8.362277, 8.362277, 8.362277, 8.362277, 8.362277, 8.362277, 8.362277, 8.362277, 8.362277, 8.362277, 8.362277, 8.33393, 8.305584, 8.277237, 8.24889, 8.220544, 8.16385, 7.937076, 7.795343, 7.6536093, 7.483529, 7.426836, 7.313449, 7.1717157, 7.029982, 6.888248, 6.8599014, 6.8032084, 6.7465153, 6.7181687, 6.6898212, 6.6614747, 6.633128, 6.633128, 6.548088, 6.4630475, 6.2079277, 6.037847, 5.8394203, 5.782727, 5.7260337, 5.697687, 5.6409936, 5.6409936, 5.612647, 5.612647, 5.5559535, 5.5559535];[0.0038125000428408384, 0.01959010004065931, 0.03363550000358373, 0.05155820003710687, 0.0687322000740096, 0.08496870007365942, 0.10111899999901652, 0.11814260005485266, 0.13428290002048016, 0.15154390002135187, 0.1675952000077814, 0.18334720004349947, 0.19974509999155998, 0.21757590002380311, 0.23389740008860826, 0.250961400102824, 0.2682344000786543, 0.28503000002820045, 0.3012977000325918, 0.3188973000505939, 0.33433290000539273, 0.35299120005220175, 0.3675867000129074, 0.3847509000916034, 0.40174770005978644, 0.4179365000454709, 0.4343897000653669, 0.4517588000744581, 0.4681188000831753, 0.4843461000127718, 0.5022589000873268, 0.5192057000240311, 0.5354374001035467, 0.5515018000733107, 0.5672829000977799, 0.5850233000237495, 0.6025388000998646, 0.6181388000259176, 0.6359158999985084, 0.6531543000601232, 0.6692411000840366, 0.6848630000604317, 0.7015604000771418, 0.719691300066188, 0.7337844000430778, 0.7517825000686571, 0.7676275999983773, 0.785831900080666, 0.80102740006987, 0.8183674000902101, 0.834521200042218, 0.8523418999975547, 0.8681938000954688, 0.8862025000853464, 0.899733200087212, 0.9186357000144199, 0.9355876999907196, 0.9500328000867739, 0.9668873000191525, 0.9857050999999046, 1.0006691000889987, 1.018370300065726, 1.0349466000916436, 1.051789400051348, 1.070060000056401, 1.084890800062567, 1.0999557001050562, 1.120050200028345, 1.1350821000523865, 1.151130500016734, 1.1690454999916255, 1.1843314000871032, 1.2021252000704408, 1.2180374000454322, 1.2341644000262022, 1.2534954000730067, 1.2679603000869974, 1.285944000002928, 1.3009595000185072, 1.3182955000083894, 1.3362461000215262, 1.3526714000618085, 1.3676508000353351, 1.3851795000955462, 1.4006382999941707, 1.4185222000814974, 1.4349486000137404, 1.4521010000025854, 1.470840600086376, 1.4859643999952823, 1.501269800006412, 1.5173055999912322, 1.5347342001041397, 1.5510615000966936, 1.5674257000209764, 1.5847382000647485, 1.6047751000151038, 1.6165504000382498]
S07;9;0;0;1;False;3000;True;;8;-136.59528093954737;drag;L;-3.6567245;-4.6772056;-128.02;5.94;1.73168780002743;1.7317626998992637;1685693616.2399309;1685693616.2459462;1685693617.001361;1685693617.5020132;1685693620.5007122;1685693622.2324877;[0.0, 0.0, 0.0, 0.0, 0.0, 0.0, 0.0, 0.0, 0.0, 0.0, 0.0, 0.0, 0.0, 0.0, 0.0, 0.0, 0.0, 0.0, 0.0, 0.0, 0.0, 0.0, 0.0, 0.0, 0.0, 0.0, 0.0, 0.0, 0.0, 0.0, 0.0, 0.0, 0.0, 0.0, 0.0, 0.0, 0.0, 0.0, 0.0, 0.0, 0.0, 0.0, 0.0, -0.28346702, -0.59528077, -0.96378785, -1.1622148, -1.3606416, -1.6157619, -1.7858423, -1.984269, -2.0976558, -2.2393894, -2.3244295, -2.381123, -2.466163, -2.5512033, -2.57955, -2.6078966, -2.6362433, -2.66459, -2.6929367, -2.7212832, -2.7779768, -2.9764037, -3.146484, -3.2882173, -3.4866443, -3.5716846, -3.6567245, -3.7417645, -3.770111, -3.8268046, -3.8551514, -3.8551514, -3.8551514, -3.8551514, -3.8268046, -3.770111, -3.713418, -3.6850712, -3.6567245, -3.6567245, -3.6567245, -3.6567245, -3.6567245, -3.6567245, -3.6567245, -3.6567245, -3.6567245, -3.6567245, -3.6567245, -3.6567245, -3.6567245, -3.6567245, -3.6567245, -3.6567245, -3.6567245, -3.6567245, -3.6567245, -3.6567245, -3.6567245, -3.6567245, -3.6567245];[0.0, 0.0, 0.0, 0.0, 0.0, 0.0, 0.0, 0.0, 0.0, 0.0, 0.0, 0.0, 0.0, 0.0, 0.0, 0.0, 0.0, 0.0, 0.0, 0.0, 0.0, 0.0, 0.0, 0.0, 0.0, 0.0, 0.0, 0.0, 0.0, 0.0, 0.0, 0.0, 0.0, 0.0, 0.0, 0.0, 0.0, 0.0, 0.0, 0.0, 0.0, 0.0, 0.0, -0.42520052, -0.8220543, -1.3039483, -1.5590686, -1.7858423, -2.0976558, -2.3244295, -2.6362433, -2.7779768, -3.0330973, -3.1748307, -3.3449106, -3.514991, -3.713418, -3.798458, -3.8834982, -3.9401915, -3.968538, -4.0535784, -4.110272, -4.1953115, -4.5921655, -4.9039793, -5.130753, -5.3575263, -5.4425664, -5.4992604, -5.5559535, -5.5843005, -5.612647, -5.6409936, -5.6409936, -5.6409936, -5.612647, -5.5843005, -5.4709134, -5.3575263, -5.2441397, -5.215793, -5.130753, -5.130753, -5.1024065, -5.1024065, -5.0740595, -5.045713, -5.017366, -4.960673, -4.9039793, -4.847286, -4.818939, -4.7905927, -4.762246, -4.762246, -4.733899, -4.7055526, -4.7055526, -4.7055526, -4.7055526, -4.7055526, -4.7055526, -4.6772056];[0.003504799911752343, 0.017078200005926192, 0.03305719990748912, 0.049124799901619554, 0.06652889994438738, 0.0843836999265477, 0.10277090000454336, 0.11623169993981719, 0.13291079993359745, 0.15106489998288453, 0.16941569990012795, 0.18420159991364926, 0.19956899993121624, 0.2176954000024125, 0.23519389994908124, 0.2512610999401659, 0.26753719989210367, 0.2827911999775097, 0.3009199999505654, 0.31677499995566905, 0.33427989995107055, 0.35037829994689673, 0.36935269995592535, 0.38462499994784594, 0.401861899998039, 0.41726139991078526, 0.4354324999731034, 0.4510759999975562, 0.46911539998836815, 0.4839678999269381, 0.5008656999561936, 0.5159081999445334, 0.534620099933818, 0.5501920999959111, 0.5674795999657363, 0.5834861999610439, 0.6011904999613762, 0.6171676999656484, 0.6349560999078676, 0.6510714999167249, 0.6681560999713838, 0.683383799972944, 0.7002521998947486, 0.7161562999244779, 0.7336493999464437, 0.7515656999312341, 0.7677567999344319, 0.7830290999263525, 0.8011963999597356, 0.8182108999462798, 0.8357220999896526, 0.8495551999658346, 0.8691871999762952, 0.8843063999665901, 0.9004968999652192, 0.9171137999510393, 0.9352176999673247, 0.9491240999195725, 0.969283499987796, 0.9823179999366403, 1.0006212999578565, 1.0183473998913541, 1.034047900000587, 1.050993699929677, 1.0672279999125749, 1.083867899957113, 1.1005661999806762, 1.115700599970296, 1.1329821998951957, 1.1495763999409974, 1.1673090999247506, 1.1845216999063268, 1.200567299965769, 1.2156389999436215, 1.2338737999089062, 1.249852899927646, 1.2691148999147117, 1.2832123999251053, 1.2996011999202892, 1.3174557999009266, 1.333844899898395, 1.3505650999723002, 1.3687055999180302, 1.3831643000012264, 1.4017862000036985, 1.4153887999709696, 1.432530999998562, 1.4510216999333352, 1.4687206998933107, 1.4833214998943731, 1.501536799944006, 1.5171800999669358, 1.534461799892597, 1.5501485998975113, 1.5690680999541655, 1.5849821999436244, 1.6013888999586925, 1.6169808999402449, 1.6339442000025883, 1.649204499903135, 1.667908399947919, 1.6827935999026522, 1.7003598998999223, 1.71755599998869]
S07;10;0;0;1;False;1000;True;;8;-13.648826115109776;drag;L;4.847286;-2.4378164;-26.7;5.43;3.6476679999614134;3.647779899998568;1685693623.0226257;1685693623.028658;1685693623.7849095;1685693624.2839062;1685693625.267061;1685693628.915307;[0.0, 0.0, 0.0, 0.0, 0.0, 0.0, 0.0, 0.0, 0.0, 0.0, 0.0, 0.0, 0.0, 0.0, 0.0, 0.0, 0.0, 0.0, 0.0, 0.0, 0.0, 0.0, 0.0, 0.0, 0.0, 0.0, 0.0, 0.0, 0.0, 0.0, 0.0, 0.0, 0.0, 0.0, 0.0, 0.0, 0.0, 0.0, 0.0, 0.0, 0.0, 0.0, 0.0, 0.0, 0.0, 0.0, 0.0, 0.0, 0.0, 0.0, 0.0, 0.0, 0.0, 0.0, 0.0, 0.0, 0.0, 0.0, 0.0, 0.0, 0.0, 0.0, 0.0, 0.0, 0.0, 0.0, 0.0, 0.0, 0.0, 0.0, 0.0, 0.0, 0.0, 0.0, 0.0, 0.0, 0.0, 0.0, 0.0, 0.0, 0.0, 0.0, 0.0, 0.0, 0.0, 0.0, 0.0, 0.0, 0.0, 0.0, 0.0, 0.0, 0.0, 0.0, 0.0, 0.0, 0.0, 0.0, 0.0, 0.0, 0.0, 0.0, 0.0, 0.0, 0.0, 0.0, 0.0, 0.0, 0.0, 0.0, 0.0, 0.0, 0.0, 0.0, 0.0, 0.0, 0.0, 0.0, 0.0, 0.0, 0.0, 0.0, 0.0, 0.0, 0.0283467, 0.14173351, 0.53858733, 0.9070944, 1.4456817, 2.4378164, 2.9197102, 3.3449106, 3.6000311, 3.8834982, 4.5921655, 5.215793, 5.8677673, 6.1228876, 6.491395, 6.6614747, 6.888248, 7.143369, 7.483529, 8.135503, 8.447317, 8.645744, 8.7591305, 8.815824, 8.844172, 8.872518, 8.900865, 8.900865, 8.872518, 8.7874775, 8.645744, 8.447317, 8.192197, 7.9654226, 7.7669964, 7.5118756, 7.3701425, 7.313449, 7.2567554, 7.143369, 7.029982, 6.7181687, 6.5197415, 6.3496614, 6.1795807, 6.0661945, 5.924461, 5.697687, 5.4709134, 5.1874466, 5.045713, 4.9039793, 4.6772056, 4.5071254, 4.337045, 4.2803516, 4.1953115, 4.1953115, 4.166965, 4.1386185, 4.1386185, 4.1386185, 4.1386185, 4.1386185, 4.166965, 4.166965, 4.1953115, 4.1953115, 4.2236586, 4.2803516, 4.3086987, 4.337045, 4.337045, 4.3937387, 4.422086, 4.4504323, 4.478779, 4.5071254, 4.5354724, 4.5354724, 4.563819, 4.563819, 4.620512, 4.648859, 4.648859, 4.6772056, 4.7055526, 4.733899, 4.733899, 4.762246, 4.7905927, 4.7905927, 4.818939, 4.847286];[0.0, 0.0, 0.0, 0.0, 0.0, 0.0, 0.0, 0.0, 0.0, 0.0, 0.0, 0.0, 0.0, 0.0, 0.0, 0.0, 0.0, 0.0, 0.0, 0.0, 0.0, 0.0, 0.0, 0.0, 0.0, 0.0, 0.0, 0.0, 0.0, 0.0, 0.0, 0.0, 0.0, 0.0, 0.0, 0.0, 0.0, 0.0, 0.0, 0.0, 0.0, 0.0, 0.0, 0.0, 0.0, 0.0, 0.0, 0.0, 0.0, 0.0, 0.0, 0.0, 0.0, 0.0, 0.0, 0.0, 0.0, 0.0, 0.0, 0.0, 0.0, 0.0, 0.0, 0.0, 0.0, 0.0, 0.0, 0.0, 0.0, 0.0, 0.0, 0.0, 0.0, 0.0, 0.0, 0.0, 0.0, 0.0, 0.0, 0.0, 0.0, 0.0, 0.0, 0.0, 0.0, 0.0, 0.0, 0.0, 0.0, 0.0, 0.0, 0.0, 0.0, 0.0, 0.0, 0.0, 0.0, 0.0, 0.0, 0.0, 0.0, 0.0, 0.0, 0.0, 0.0, 0.0, 0.0, 0.0, 0.0, 0.0, 0.0, 0.0, 0.0, 0.0, 0.0, 0.0, 0.0, 0.0, 0.0, 0.0, 0.0, 0.0, 0.0, 0.0, 0.0, -0.0283467, -0.1700802, -0.3401604, -0.56693405, -0.93544114, -1.1622148, -1.3039483, -1.417335, -1.5307219, -1.7291489, -1.899229, -2.0976558, -2.182696, -2.3244295, -2.3527763, -2.4378164, -2.5228565, -2.5512033, -2.5512033, -2.4945097, -2.466163, -2.4378164, -2.4378164, -2.4094696, -2.4094696, -2.4094696, -2.4094696, -2.4094696, -2.4094696, -2.4094696, -2.4094696, -2.4094696, -2.4094696, -2.4094696, -2.4094696, -2.4094696, -2.4094696, -2.4094696, -2.4094696, -2.381123, -2.2960827, -2.2393894, -2.182696, -2.182696, -2.1543493, -2.1543493, -2.1543493, -2.1543493, -2.1543493, -2.1543493, -2.1543493, -2.182696, -2.182696, -2.182696, -2.182696, -2.182696, -2.182696, -2.182696, -2.182696, -2.182696, -2.182696, -2.182696, -2.182696, -2.211043, -2.211043, -2.2393894, -2.2393894, -2.2677362, -2.2677362, -2.2960827, -2.3244295, -2.3244295, -2.3527763, -2.3527763, -2.3527763, -2.3527763, -2.3527763, -2.3527763, -2.3527763, -2.381123, -2.381123, -2.381123, -2.381123, -2.4094696, -2.4094696, -2.4094696, -2.4378164, -2.4378164, -2.4378164, -2.4378164, -2.4378164, -2.4378164, -2.4378164];[0.004029999952763319, 0.01822639990132302, 0.033749999944120646, 0.05104129994288087, 0.0685301999328658, 0.08449969999492168, 0.10071109991986305, 0.11949299997650087, 0.13389119994826615, 0.15153269993606955, 0.16797239996958524, 0.18501269991975278, 0.19982159999199212, 0.21765869995579123, 0.2351167999440804, 0.25192429998423904, 0.26769409992266446, 0.2859525999519974, 0.30095299996901304, 0.3175393999554217, 0.33388089993968606, 0.35131199995521456, 0.3680754998931661, 0.38503179990220815, 0.40050999994855374, 0.4193602999439463, 0.4345061999047175, 0.45157779997680336, 0.46710639994125813, 0.48395069991238415, 0.5013139999937266, 0.5185234999516979, 0.5333878999808803, 0.5492487999144942, 0.5666995999636129, 0.5841817999025807, 0.6004439999815077, 0.6191470999037847, 0.6345651999581605, 0.651374299894087, 0.6672988999634981, 0.6844341999385506, 0.6995277999667451, 0.7187738999491557, 0.734177100006491, 0.7531732999486849, 0.7670368999242783, 0.7829138999804854, 0.8001647999044508, 0.8201078999554738, 0.8342277999036014, 0.8519580999854952, 0.8676694999448955, 0.8843143999110907, 0.9013691999716684, 0.9176738999085501, 0.9335520999738947, 0.9522790999617428, 0.9683070000028238, 0.9843857999658212, 1.000404299935326, 1.0200644999276847, 1.0346971999388188, 1.0535768999252468, 1.0675107999704778, 1.085423699929379, 1.0989618999883533, 1.1184125998988748, 1.1348253999603912, 1.1527567999437451, 1.1678979999851435, 1.184477899922058, 1.2016727000009269, 1.217348999925889, 1.2332260999828577, 1.2508653999539092, 1.2670785000082105, 1.2855124999769032, 1.3016258999705315, 1.3195179000031203, 1.3347534999484196, 1.3511608999688178, 1.3671867999946699, 1.3855282999575138, 1.4011597000062466, 1.4172003999119624, 1.4343104999279603, 1.451872899895534, 1.4673490999266505, 1.4837915999814868, 1.501347899902612, 1.5184332999633625, 1.5334003999596462, 1.5521235999185592, 1.5672023999504745, 1.5858841999433935, 1.6007212999975309, 1.618578499997966, 1.633519999915734, 1.6522085999604315, 1.668507399968803, 1.6840762000065297, 1.7004731999477372, 1.7174566999310628, 1.733773299958557, 1.7525345999747515, 1.767363699967973, 1.7847720999270678, 1.8009911999106407, 1.818616300006397, 1.8335653999820352, 1.8505841000005603, 1.8673935999395326, 1.8836117999162525, 1.899790299939923, 1.9174106999998912, 1.9333865999942645, 1.9522338999668136, 1.9677880998933688, 1.9838291999185458, 1.9999524999875575, 2.0165890000062063, 2.0327940999995917, 2.0507737000007182, 2.068020200007595, 2.082572399987839, 2.099049299955368, 2.1178186999168247, 2.1342011999804527, 2.150836299988441, 2.1677921999944374, 2.1848907999228686, 2.201385899912566, 2.2174054000061005, 2.235246099997312, 2.2563263999763876, 2.2851510999025777, 2.301334499963559, 2.3174907999346033, 2.335763099952601, 2.353737899917178, 2.3679700999055058, 2.384333899943158, 2.403269999893382, 2.4169886999297887, 2.4333814999554306, 2.45260540000163, 2.468295899918303, 2.4849694999866188, 2.5008965999586508, 2.5175129999406636, 2.5340663999086246, 2.550133799901232, 2.568256099941209, 2.583569699898362, 2.599247199948877, 2.6191719999769703, 2.6348260999657214, 2.649951900006272, 2.6684525999007747, 2.6824861000059173, 2.7001698999665678, 2.716237199958414, 2.732696699909866, 2.7512100999010727, 2.766268999897875, 2.783322799950838, 2.8012172000017017, 2.817016499931924, 2.833400899893604, 2.8502297999802977, 2.868255399982445, 2.88363129994832, 2.8996250999625772, 2.9189307999331504, 2.9338248999556527, 2.9511230000061914, 2.9680732999695465, 2.985515799955465, 3.001492299954407, 3.019802999915555, 3.034987699938938, 3.050894799991511, 3.0686141999904066, 3.0838463999098167, 3.10010489996057, 3.11719199991785, 3.1352044999366626, 3.1500767999095842, 3.166599199990742, 3.1831868999870494, 3.201215299894102, 3.2164781999308616, 3.2340562999015674, 3.2520247999345884, 3.269634799915366, 3.282803599955514, 3.3023440999677405, 3.317306699929759, 3.3377176999347284, 3.348602299927734, 3.369258099934086, 3.3835627998923883, 3.400331199984066, 3.4174139999086037, 3.4337447999278083, 3.4490791999269277, 3.4681710998993367, 3.4832796999253333, 3.5001357999863103, 3.51748649997171, 3.534533799975179, 3.5499357999069616, 3.567927199997939, 3.582434399984777, 3.6012493999442086, 3.6163302999921143, 3.633796199923381]
S07;11;0;0;1;False;3000;False;;8;-34.24377131930111;drag;L;nan;nan;nan;nan;0.002213299972936511;0.0023373999865725636;1685693629.7007532;1685693629.711395;1685693630.4503753;1685693630.4513729;1685693630.45192;1685693630.4541137;[];[];[]
S07;11;0;0;1;False;3000;True;;8;143.89058263395148;drag;L;-4.960673;3.3732576;145.78;6.0;1.3666940000839531;1.3670600999612361;1685693631.0244591;1685693631.0275152;1685693631.783582;1685693632.2823098;1685693635.2828157;1685693636.6495786;[0.0, 0.0, 0.0, 0.0, 0.0, 0.0, 0.0, 0.0, 0.0, 0.0, 0.0, 0.0, 0.0, 0.0, 0.0, 0.0, 0.0, 0.0, 0.0, 0.0, 0.0, 0.0, 0.0, 0.0, 0.0, 0.0, 0.0, 0.0, 0.0, 0.0, 0.0, 0.0, 0.0, 0.0, 0.0, 0.0, -0.3401604, -0.6803208, -1.2189082, -1.5023751, -1.7008021, -1.899229, -2.012616, -2.0693092, -2.182696, -2.3527763, -2.948057, -3.6000311, -4.081925, -4.4504323, -4.5921655, -4.6772056, -4.733899, -4.762246, -4.7905927, -4.818939, -4.875633, -4.9039793, -4.960673, -5.045713, -5.1024065, -5.130753, -5.1591, -5.1591, -5.1874466, -5.215793, -5.215793, -5.215793, -5.215793, -5.215793, -5.1874466, -5.1874466, -5.1591, -5.1591, -5.1024065, -5.0740595, -5.045713, -5.045713, -5.017366, -4.9890194, -4.960673, -4.960673];[0.0, 0.0, 0.0, 0.0, 0.0, 0.0, 0.0, 0.0, 0.0, 0.0, 0.0, 0.0, 0.0, 0.0, 0.0, 0.0, 0.0, 0.0, 0.0, 0.0, 0.0, 0.0, 0.0, 0.0, 0.0, 0.0, 0.0, 0.0, 0.0, 0.0, 0.0, 0.0, 0.0, 0.0, 0.0, 0.0, 0.2551203, 0.5102406, 0.9070944, 1.0771747, 1.2756016, 1.3889884, 1.4456817, 1.5023751, 1.5590686, 1.6724553, 2.1260026, 2.57955, 2.9764037, 3.2882173, 3.4299507, 3.5433376, 3.6000311, 3.6283777, 3.6283777, 3.6567245, 3.6850712, 3.713418, 3.7417645, 3.770111, 3.770111, 3.798458, 3.798458, 3.798458, 3.798458, 3.798458, 3.798458, 3.770111, 3.7417645, 3.7417645, 3.713418, 3.6850712, 3.6567245, 3.6283777, 3.5716846, 3.5433376, 3.514991, 3.4866443, 3.4582977, 3.4016042, 3.4016042, 3.3732576];[0.0041504999389871955, 0.01800279994495213, 0.034996400005184114, 0.0506465999642387, 0.06847219995688647, 0.08395340002607554, 0.10223939991556108, 0.1189358999254182, 0.13604819995816797, 0.15087909996509552, 0.1701630000025034, 0.18404139997437596, 0.20120319991838187, 0.21724889997858554, 0.23462959995958954, 0.2508045999566093, 0.26783169992268085, 0.28489909996278584, 0.3017966999905184, 0.3182162999873981, 0.3359149999450892, 0.35295139998197556, 0.36857739998959005, 0.38459029991645366, 0.4011977999471128, 0.41751359996851534, 0.43541149992961437, 0.4515567999333143, 0.46805959998164326, 0.48504209995735437, 0.5016376000130549, 0.5178072999697179, 0.5345885999267921, 0.5506342999869958, 0.5664861999684945, 0.583550599985756, 0.6024691999191418, 0.6163904999848455, 0.6371005999390036, 0.6514685000292957, 0.6709094999823719, 0.6873154999921098, 0.701418099924922, 0.7184154000133276, 0.7366358999861404, 0.7497643999522552, 0.7691561999963596, 0.7839888000162318, 0.8020493999356404, 0.8209151999326423, 0.835689099971205, 0.8519116999814287, 0.8672959000105038, 0.8840935999760404, 0.9044558999594301, 0.9189763999311253, 0.9374058999819681, 0.9523121999809518, 0.969618699979037, 0.9845853999722749, 1.0036822999827564, 1.018709299969487, 1.0381326000206172, 1.0497347000055015, 1.069837599992752, 1.0837936999741942, 1.1003665999742225, 1.1174537999322638, 1.1358224999858066, 1.1498825999442488, 1.170281199971214, 1.184307700023055, 1.2013814999954775, 1.2167331000091508, 1.235608399962075, 1.2544928999850526, 1.2673952999757603, 1.2834378000115976, 1.302949499920942, 1.3169877999462187, 1.3350485999835655, 1.3512008999241516]
S07;12;0;0;1;False;3000;True;;8;-72.44448477263519;drag;L;3.2882173;-5.1874466;-57.63;6.14;1.564667799975723;1.5647414999548346;1685693637.5174398;1685693637.527464;1685693638.2824612;1685693638.7843432;1685693641.7832222;1685693643.3481011;[0.0, 0.0, 0.0, 0.0, 0.0, 0.0, 0.0, 0.0, 0.0, 0.0, 0.0, 0.0, 0.0, 0.0, 0.0, 0.0, 0.0, 0.0, 0.0, 0.0, 0.0, 0.0, 0.0, 0.0, 0.0, 0.0, 0.0, 0.0, 0.0, 0.0, 0.0, 0.0, 0.0, 0.0, 0.0, 0.0, 0.0, 0.0, 0.0, 0.0, 0.0, 0.0, 0.0, 0.0, 0.3401604, 0.76536095, 1.0488279, 1.1338681, 1.2756016, 1.3606416, 1.4456817, 1.5307219, 1.6157619, 1.8141888, 1.984269, 2.182696, 2.2960827, 2.3244295, 2.381123, 2.4378164, 2.4945097, 2.4945097, 2.5228565, 2.5228565, 2.5512033, 2.5512033, 2.5512033, 2.57955, 2.6362433, 2.83467, 2.948057, 3.0614438, 3.1181371, 3.2315238, 3.2598708, 3.2598708, 3.2882173, 3.2882173, 3.2882173, 3.2882173, 3.2882173, 3.2882173, 3.2882173, 3.2882173, 3.2882173, 3.2882173, 3.2882173, 3.2882173, 3.2882173, 3.2882173, 3.2882173, 3.2882173, 3.2882173, 3.2882173];[0.0, 0.0, 0.0, 0.0, 0.0, 0.0, 0.0, 0.0, 0.0, 0.0, 0.0, 0.0, 0.0, 0.0, 0.0, 0.0, 0.0, 0.0, 0.0, 0.0, 0.0, 0.0, 0.0, 0.0, 0.0, 0.0, 0.0, 0.0, 0.0, 0.0, 0.0, 0.0, 0.0, 0.0, 0.0, 0.0, 0.0, 0.0, 0.0, 0.0, 0.0, 0.0, 0.0, 0.0, -0.65197414, -1.5023751, -2.012616, -2.182696, -2.4094696, -2.4945097, -2.6362433, -2.7779768, -2.8913634, -3.0614438, -3.2031772, -3.3732576, -3.4582977, -3.514991, -3.5716846, -3.6283777, -3.6850712, -3.6850712, -3.713418, -3.713418, -3.7417645, -3.770111, -3.770111, -3.8268046, -3.911845, -4.110272, -4.2236586, -4.365392, -4.478779, -4.5921655, -4.648859, -4.6772056, -4.733899, -4.762246, -4.818939, -4.9039793, -4.9890194, -5.017366, -5.045713, -5.1024065, -5.1024065, -5.130753, -5.130753, -5.130753, -5.1591, -5.1591, -5.1591, -5.1591, -5.1874466, -5.1874466];[0.004343300010077655, 0.016473200055770576, 0.03545059997122735, 0.05079979996662587, 0.06830030004493892, 0.08461859996896237, 0.10170750005636364, 0.11666309996508062, 0.1335552999516949, 0.1507975000422448, 0.16905939998105168, 0.1850871000206098, 0.20067649998236448, 0.21689969999715686, 0.23456889996305108, 0.2506964000640437, 0.2685437999898568, 0.2838181999977678, 0.3019270000513643, 0.3166509000584483, 0.3339724000543356, 0.35006770002655685, 0.36706199997570366, 0.38187899999320507, 0.39896590006537735, 0.41601929999887943, 0.4328059999970719, 0.45010140002705157, 0.4687336999922991, 0.4830468000145629, 0.5009451999794692, 0.5176315000280738, 0.5349861000431702, 0.5510982000268996, 0.5692905000178143, 0.5844498999649659, 0.6011850000359118, 0.6185243000509217, 0.6352688999613747, 0.6510827000020072, 0.6671322999754921, 0.6842629000311717, 0.701777399983257, 0.7161077000200748, 0.7343933000229299, 0.7495214999653399, 0.7668910999782383, 0.7827021999983117, 0.80192670004908, 0.8170947000617161, 0.8350222000153735, 0.8491119999671355, 0.8680139000061899, 0.8837164000142366, 0.900774099980481, 0.9193934999639168, 0.9361006000544876, 0.9505752000259236, 0.9679733000230044, 0.9841268999734893, 1.0048724999651313, 1.0158766000531614, 1.036806600051932, 1.0503021000185981, 1.067869700025767, 1.084169700043276, 1.1002083000494167, 1.1161074000410736, 1.1362221000017598, 1.1513582000043243, 1.169709200039506, 1.1832227000268176, 1.1994311000453308, 1.2155906000407413, 1.23512159998063, 1.250732299988158, 1.2672821000451222, 1.2836584000615403, 1.3019183999858797, 1.3170190999517217, 1.334057500003837, 1.351438399986364, 1.3691730999853462, 1.3833370000356808, 1.40054359997157, 1.4158386000199243, 1.4341783999698237, 1.450883200042881, 1.4680858000647277, 1.4837611999828368, 1.5010020000627264, 1.5168427999597043, 1.5369273000396788, 1.549891100032255]
S07;13;0;0;1;False;1000;True;;8;-1.5181183431987917;drag;L;5.981154;-0.19842692;-1.9;5.98;1.6678139000432566;1.6679118999745697;1685693644.0248091;1685693644.044546;1685693644.7996545;1685693645.3006332;1685693646.281638;1685693647.9499154;[0.0, 0.0, 0.0, 0.0, 0.0, 0.0, 0.0, 0.0, 0.0, -0.0850401, -0.14173351, -0.2551203, -0.28346702, -0.3401604, -0.3401604, -0.36850712, -0.36850712, -0.39685383, -0.42520052, -0.42520052, -0.42520052, -0.4535472, -0.5102406, -0.59528077, -0.6236274, -0.65197414, -0.65197414, -0.65197414, -0.65197414, -0.59528077, -0.39685383, -0.2551203, -0.0850401, 0.19842692, 0.39685383, 0.73701423, 1.0204812, 1.7858423, 2.6362433, 3.4582977, 4.110272, 4.337045, 4.563819, 4.6772056, 4.733899, 4.818939, 4.818939, 4.818939, 4.818939, 4.818939, 4.818939, 4.818939, 4.818939, 4.818939, 4.818939, 4.818939, 4.818939, 4.818939, 4.818939, 4.818939, 4.818939, 4.818939, 4.9890194, 5.1874466, 5.2724867, 5.3858733, 5.3858733, 5.41422, 5.4425664, 5.4425664, 5.4709134, 5.4709134, 5.4709134, 5.4709134, 5.4709134, 5.4992604, 5.4992604, 5.527607, 5.5559535, 5.5843005, 5.6409936, 5.66934, 5.7260337, 5.75438, 5.782727, 5.811074, 5.8394203, 5.8394203, 5.8677673, 5.8677673, 5.896114, 5.896114, 5.924461, 5.9528074, 5.9528074, 5.9528074, 5.9528074, 5.981154, 5.981154, 5.981154];[0.0, 0.0, 0.0, 0.0, 0.0, 0.0, 0.0, 0.0, 0.0283467, 0.2267736, 0.39685383, 0.59528077, 0.6803208, 0.73701423, 0.76536095, 0.8220543, 0.85040104, 0.85040104, 0.87874776, 0.87874776, 0.9070944, 1.0204812, 1.1905615, 1.3606416, 1.4456817, 1.5023751, 1.5023751, 1.5307219, 1.5307219, 1.417335, 1.0204812, 0.8220543, 0.6236274, 0.39685383, 0.28346702, 0.2267736, 0.1700802, 0.1133868, -0.0283467, -0.1700802, -0.3401604, -0.42520052, -0.48189393, -0.53858733, -0.53858733, -0.53858733, -0.53858733, -0.53858733, -0.53858733, -0.53858733, -0.53858733, -0.53858733, -0.53858733, -0.53858733, -0.53858733, -0.53858733, -0.53858733, -0.53858733, -0.53858733, -0.53858733, -0.53858733, -0.53858733, -0.53858733, -0.53858733, -0.53858733, -0.5102406, -0.5102406, -0.5102406, -0.5102406, -0.5102406, -0.5102406, -0.5102406, -0.5102406, -0.5102406, -0.5102406, -0.5102406, -0.48189393, -0.4535472, -0.42520052, -0.39685383, -0.3401604, -0.3118137, -0.28346702, -0.2551203, -0.2267736, -0.2267736, -0.19842692, -0.19842692, -0.19842692, -0.19842692, -0.19842692, -0.19842692, -0.19842692, -0.19842692, -0.19842692, -0.19842692, -0.19842692, -0.19842692, -0.19842692, -0.19842692];[0.004221399896778166, 0.019214599975384772, 0.035316399997100234, 0.05138619989156723, 0.06760509999003261, 0.08593299996573478, 0.10038949991576374, 0.11877229996025562, 0.1350324999075383, 0.15123749990016222, 0.16662789997644722, 0.1852096999064088, 0.20030729996506125, 0.2188861999893561, 0.23386759997811168, 0.25437419989611953, 0.26731659995857626, 0.28491839999333024, 0.3028228998882696, 0.31677099992521107, 0.335007399902679, 0.35142129997257143, 0.3696899999631569, 0.3838075998937711, 0.4014955998864025, 0.4210693999193609, 0.43424179998692125, 0.44995299994479865, 0.46731889992952347, 0.48438669997267425, 0.49941369995940477, 0.5194001999916509, 0.5330478999530897, 0.5513166999444366, 0.5679525999585167, 0.5853088999865577, 0.6015800999011844, 0.6189373999368399, 0.6327988998964429, 0.6511218999512494, 0.6689779999433085, 0.6851235999492928, 0.7043966999044642, 0.7172829998889938, 0.7341589999850839, 0.7525136999320239, 0.7660441999323666, 0.7852146999211982, 0.8013261999003589, 0.8183181999484077, 0.8344934999477118, 0.852690799976699, 0.8676419999683276, 0.8855675999075174, 0.9018894999753684, 0.9177398999454454, 0.9337074999930337, 0.9518842999823391, 0.966513599967584, 0.9852097999537364, 0.999800099991262, 1.0179842999204993, 1.0342204999178648, 1.0510765999788418, 1.06677919998765, 1.0847287999931723, 1.101450299960561, 1.1186226999852806, 1.1356444999109954, 1.1508692998904735, 1.1673555999295786, 1.1843977998942137, 1.199659499921836, 1.2183364999946207, 1.2328622998902574, 1.2513603999977931, 1.2668159999884665, 1.284414599998854, 1.300675299949944, 1.3201532999519259, 1.3347011998994276, 1.3522249999223277, 1.3712657999712974, 1.384879699908197, 1.4010293999454007, 1.4179731999756768, 1.4338022998999804, 1.4513240999076515, 1.4671111999778077, 1.484911499894224, 1.5005572999361902, 1.518560399999842, 1.5336272999411449, 1.5511249999981374, 1.5662201999220997, 1.5848946999758482, 1.6005047999788076, 1.6200228999368846, 1.6339540999615565, 1.6516576999565586]
S07;14;0;0;1;False;1000;True;;8;-54.633400523055876;drag;L;4.875633;-6.1795807;-51.73;7.87;1.635279200039804;1.635329099954106;1685693648.6890726;1685693648.6937099;1685693649.4489417;1685693649.950213;1685693650.9301581;1685693652.5651264;[0.0, 0.0, 0.0, 0.0, 0.0, 0.0, 0.0, 0.0, 0.0, 0.0, 0.0, 0.0, 0.0, 0.0, 0.0, 0.0, 0.0, 0.0, 0.0, 0.0, 0.0, 0.0, 0.0, 0.0, 0.0, 0.0, 0.0, 0.0, 0.0, 0.0, 0.0, 0.0, 0.1700802, 1.2189082, 2.0976558, 2.4945097, 2.7496302, 2.8913634, 3.0047503, 3.0897903, 3.2315238, 3.3732576, 3.4866443, 3.6000311, 3.770111, 4.081925, 4.337045, 4.7055526, 4.847286, 4.960673, 5.0740595, 5.1024065, 5.1591, 5.1591, 5.1591, 5.1591, 5.1591, 5.1591, 5.1591, 5.1591, 5.1591, 5.1591, 5.1591, 5.1591, 5.1591, 5.1591, 5.1591, 5.1591, 5.1591, 5.1591, 5.1591, 5.1591, 5.1591, 5.1591, 5.1591, 5.1591, 5.1591, 5.1024065, 5.1024065, 5.1024065, 5.0740595, 5.0740595, 5.045713, 5.045713, 5.017366, 5.017366, 4.9890194, 4.9890194, 4.9890194, 4.9890194, 4.960673, 4.932326, 4.932326, 4.9039793, 4.875633, 4.875633, 4.875633, 4.875633];[0.0, 0.0, 0.0, 0.0, 0.0, 0.0, 0.0, 0.0, 0.0, 0.0, 0.0, 0.0, 0.0, 0.0, 0.0, 0.0, 0.0, 0.0, 0.0, 0.0, 0.0, 0.0, 0.0, 0.0, 0.0, 0.0, 0.0, 0.0, 0.0, 0.0, 0.0, -0.0283467, -0.2267736, -1.3889884, -2.2677362, -2.7212832, -2.9764037, -3.1181371, -3.2315238, -3.3449106, -3.4866443, -3.6850712, -3.8551514, -3.968538, -4.110272, -4.422086, -4.620512, -4.875633, -5.017366, -5.1591, -5.4425664, -5.612647, -5.782727, -5.782727, -5.782727, -5.782727, -5.782727, -5.782727, -5.782727, -5.782727, -5.782727, -5.782727, -5.782727, -5.782727, -5.782727, -5.782727, -5.782727, -5.782727, -5.782727, -5.782727, -5.782727, -5.8394203, -5.896114, -5.896114, -5.9528074, -5.9528074, -5.981154, -6.0095005, -6.0095005, -6.0095005, -6.0095005, -6.0095005, -6.0095005, -6.0095005, -6.037847, -6.037847, -6.037847, -6.037847, -6.0661945, -6.0661945, -6.094541, -6.094541, -6.1228876, -6.1228876, -6.151234, -6.151234, -6.1795807, -6.1795807];[0.004368599969893694, 0.0220712999580428, 0.03479569999035448, 0.05420449993107468, 0.06999240000732243, 0.08682690002024174, 0.10303619992919266, 0.12026579992379993, 0.13540839997585863, 0.15327579993754625, 0.1702188999624923, 0.18806179997045547, 0.20303500001318753, 0.21901030000299215, 0.23536769999191165, 0.25306289992295206, 0.269313299912028, 0.28767529991455376, 0.30241579993162304, 0.3200040999799967, 0.33640109992120415, 0.3538306999253109, 0.36994220002088696, 0.38658199994824827, 0.4023733999347314, 0.4207924000220373, 0.4351134999888018, 0.4529653999488801, 0.4695524999406189, 0.48689149995334446, 0.5036133999237791, 0.521903199958615, 0.5361054999521002, 0.5558334999950603, 0.5686809999169782, 0.5869661999167874, 0.6043056999333203, 0.6195042999461293, 0.6369934999383986, 0.6530970999738201, 0.6693475999636576, 0.6893599999602884, 0.7016941999318078, 0.7209109999239445, 0.7376091999467462, 0.7536992999957874, 0.7707003999967128, 0.7877998999319971, 0.802756299963221, 0.8213627999648452, 0.8362048999406397, 0.8552739999722689, 0.8704271999886259, 0.8871360999764875, 0.9023130999412388, 0.9211528999730945, 0.9377089999616146, 0.9541668000165373, 0.9707032999722287, 0.9878393999533728, 1.0041460000211373, 1.0207517999224365, 1.0364892999641597, 1.0547707999357954, 1.0686220999341458, 1.0877671999624, 1.1020136999431998, 1.1201973999850452, 1.1354933999245986, 1.1526781999273226, 1.1694703999673948, 1.188938400009647, 1.2029051999561489, 1.2210815999424085, 1.2375342999584973, 1.2538249000208452, 1.2706225999863818, 1.2859638999216259, 1.3021355000091717, 1.31944290001411, 1.3368744999170303, 1.3544307999545708, 1.3688811999745667, 1.3866222000215203, 1.4053169999970123, 1.419453899958171, 1.4377451000036672, 1.4543986999196932, 1.469647099962458, 1.4873574000084773, 1.5020518000237644, 1.5204319999320433, 1.5368364999303594, 1.5547991999192163, 1.5708533999277279, 1.5870423999149352, 1.603356699924916, 1.6216944999760017]
S07;15;0;0;1;False;3000;True;;8;-177.45003661077465;drag;L;-6.0095005;-2.3244295;-158.85;6.44;1.965214499970898;1.9653326999396086;1685693653.241311;1685693653.2615545;1685693654.0159316;1685693654.5175154;1685693657.516419;1685693659.4812608;[0.0, 0.0, 0.0, 0.0, 0.0, 0.0, 0.0, 0.0, 0.0, 0.0, 0.0, 0.0, 0.0, 0.0, 0.0, 0.0, 0.0, 0.0, 0.0, 0.0, 0.0, 0.0, 0.0, 0.0, 0.0, 0.0, 0.0, 0.0, 0.0, 0.0, 0.0, 0.0, 0.0, 0.0, -0.53858733, -0.76536095, -1.0488279, -1.2189082, -1.3606416, -1.5023751, -1.5874153, -1.6441087, -1.7574955, -1.7858423, -1.9275757, -2.012616, -2.2393894, -2.5512033, -3.0614438, -3.4299507, -3.8268046, -3.996885, -4.166965, -4.2236586, -4.2803516, -4.365392, -4.5071254, -4.733899, -5.1591, -5.3858733, -5.5843005, -5.6409936, -5.6409936, -5.6409936, -5.6409936, -5.6409936, -5.6409936, -5.6409936, -5.6409936, -5.6409936, -5.6409936, -5.6409936, -5.6409936, -5.6409936, -5.6409936, -5.6409936, -5.6409936, -5.66934, -5.697687, -5.697687, -5.7260337, -5.75438, -5.75438, -5.75438, -5.75438, -5.75438, -5.75438, -5.75438, -5.75438, -5.75438, -5.75438, -5.75438, -5.75438, -5.75438, -5.75438, -5.75438, -5.782727, -5.782727, -5.782727, -5.811074, -5.811074, -5.8394203, -5.8677673, -5.8677673, -5.8677673, -5.896114, -5.896114, -5.924461, -5.924461, -5.924461, -5.924461, -5.9528074, -5.981154, -5.981154, -5.981154, -6.0095005, -6.0095005];[0.0, 0.0, 0.0, 0.0, 0.0, 0.0, 0.0, 0.0, 0.0, 0.0, 0.0, 0.0, 0.0, 0.0, 0.0, 0.0, 0.0, 0.0, 0.0, 0.0, 0.0, 0.0, 0.0, 0.0, 0.0, 0.0, 0.0, 0.0, 0.0, 0.0, 0.0, 0.0, 0.0, 0.0, 0.0, 0.0283467, 0.0566934, 0.0566934, 0.0566934, 0.0566934, 0.0566934, 0.0566934, 0.0283467, 0.0283467, -0.0566934, -0.14173351, -0.3401604, -0.59528077, -0.9070944, -1.0204812, -1.0771747, -1.0771747, -1.0488279, -1.0204812, -1.0204812, -1.0204812, -1.0204812, -1.0488279, -1.2756016, -1.3606416, -1.4740285, -1.5023751, -1.5023751, -1.5023751, -1.5023751, -1.5023751, -1.5023751, -1.5023751, -1.5023751, -1.5023751, -1.5023751, -1.5023751, -1.5023751, -1.5023751, -1.5023751, -1.5023751, -1.5023751, -1.5874153, -1.6441087, -1.7008021, -1.7291489, -1.7574955, -1.7858423, -1.7858423, -1.7858423, -1.7858423, -1.8141888, -1.8141888, -1.8425356, -1.8425356, -1.8708823, -1.899229, -1.899229, -1.9275757, -1.9275757, -1.9559225, -1.9559225, -2.012616, -2.0409625, -2.0693092, -2.1260026, -2.1260026, -2.1543493, -2.182696, -2.2393894, -2.2393894, -2.2677362, -2.2677362, -2.2960827, -2.2960827, -2.2960827, -2.2960827, -2.2960827, -2.2960827, -2.2960827, -2.3244295, -2.3244295];[0.005524999927729368, 0.031108499970287085, 0.05209949996788055, 0.06701389991212636, 0.08517759991809726, 0.10122650000266731, 0.11764319997746497, 0.13286419992800802, 0.15160989994183183, 0.1668906999984756, 0.18589899991638958, 0.19949719996657223, 0.21817749994806945, 0.23372319992631674, 0.25034869997762144, 0.26769369991961867, 0.2837437998969108, 0.30041779996827245, 0.3178713999222964, 0.33409069990739226, 0.351694899960421, 0.3673364999704063, 0.3844720999477431, 0.39938919991254807, 0.41812829999253154, 0.434008999960497, 0.4514644999289885, 0.4669325998984277, 0.4851648999610916, 0.49958539998624474, 0.5162490999791771, 0.5326018999330699, 0.5513935999479145, 0.5674654999747872, 0.5841460999799892, 0.5994553999044001, 0.6185275999596342, 0.6322091999463737, 0.6515853999881074, 0.6688141999766231, 0.6835690999869257, 0.701965699903667, 0.7173346999334171, 0.732342999894172, 0.7529994999058545, 0.7673142999410629, 0.7856283999281004, 0.7993711999151856, 0.8177482999162748, 0.8335904999403283, 0.8512548999860883, 0.8660647999495268, 0.886794599937275, 0.8997209999943152, 0.9164210999151692, 0.9330371998948976, 0.9503960999427363, 0.9666780999395996, 0.9841118999756873, 0.999979899963364, 1.0198301000054926, 1.032986499951221, 1.050480299978517, 1.0670212999684736, 1.0851028999313712, 1.0999817999545485, 1.1184455999173224, 1.1336340999696404, 1.1520893999841064, 1.1664175000041723, 1.1845839999150485, 1.1989879999309778, 1.2159689998952672, 1.2323988999705762, 1.2501913999440148, 1.2661259999731556, 1.2842488999012858, 1.3001573999645188, 1.3168701999820769, 1.334489099914208, 1.3505096998997033, 1.368620799970813, 1.3839404999744147, 1.399142999900505, 1.4175120999570936, 1.4336964999092743, 1.4511125999270007, 1.4671240999596193, 1.4859108999371529, 1.4996683999197558, 1.5179455999750644, 1.5340556999435648, 1.550204599974677, 1.567228699917905, 1.5832671999232844, 1.5993201999226585, 1.6171911999117583, 1.6337413999717683, 1.653063099947758, 1.6657821999397129, 1.6862751999869943, 1.6990985999582335, 1.7177975999657065, 1.7324420999502763, 1.749928499921225, 1.7665641999337822, 1.7823732999386266, 1.8015091998968273, 1.817228899919428, 1.8333746999269351, 1.8502529999241233, 1.866932399920188, 1.8837698999559507, 1.8992990999249741, 1.9173761999700218, 1.9365198999876156, 1.9515679999021813]
S07;16;0;0;1;False;1000;True;;8;3.9431192741277092;drag;L;7.0016356;1.0488279;8.52;7.08;1.7846098999725655;1.7847062000073493;1685693660.9761262;1685693660.99297;1685693661.748818;1685693662.249376;1685693663.2307386;1685693665.015395;[0.0, 0.0, 0.0, 0.0, 0.0, 0.0, 0.0, 0.0, 0.0, 0.0, 0.0, 0.0, 0.0, 0.0, 0.0, 0.0, 0.0, 0.0, 0.0, 0.0, 0.0, 0.0, 0.0, 0.0, 0.0, 0.0, 0.0, 0.0, 0.0, 0.0, 0.0, 0.0, 0.0, 0.0, 0.0, 0.0, 0.0, 0.0, 0.0, 0.0, 0.0, 0.0, 0.0, 0.0, 0.0, 0.0, 0.0, 0.6803208, 2.381123, 3.146484, 3.8834982, 4.166965, 4.3086987, 4.5071254, 4.5921655, 4.648859, 4.733899, 4.847286, 4.932326, 5.1874466, 5.41422, 5.811074, 6.0095005, 6.151234, 6.264621, 6.321315, 6.3496614, 6.378008, 6.434701, 6.434701, 6.4630475, 6.4630475, 6.4630475, 6.548088, 6.5764346, 6.6898212, 6.7181687, 6.8032084, 6.831555, 6.8599014, 6.888248, 6.9165955, 6.9165955, 6.944942, 6.9732885, 6.9732885, 6.9732885, 7.0016356, 7.0016356, 7.0016356, 7.0016356, 7.0016356, 7.0016356, 7.0016356, 7.0016356, 7.0016356, 7.0016356, 7.0016356, 7.0016356, 7.0016356, 7.0016356, 7.0016356, 7.0016356, 7.0016356, 7.0016356, 7.0016356, 7.0016356];[0.0, 0.0, 0.0, 0.0, 0.0, 0.0, 0.0, 0.0, 0.0, 0.0, 0.0, 0.0, 0.0, 0.0, 0.0, 0.0, 0.0, 0.0, 0.0, 0.0, 0.0, 0.0, 0.0, 0.0, 0.0, 0.0, 0.0, 0.0, 0.0, 0.0, 0.0, 0.0, 0.0, 0.0, 0.0, 0.0, 0.0, 0.0, 0.0, 0.0, 0.0, 0.0, 0.0, 0.0, 0.0, 0.0, 0.0, 0.0850401, 0.36850712, 0.4535472, 0.53858733, 0.6236274, 0.65197414, 0.7086675, 0.73701423, 0.73701423, 0.76536095, 0.76536095, 0.76536095, 0.76536095, 0.73701423, 0.6803208, 0.6803208, 0.6803208, 0.65197414, 0.65197414, 0.65197414, 0.6236274, 0.6236274, 0.6236274, 0.6236274, 0.6236274, 0.6236274, 0.6236274, 0.65197414, 0.65197414, 0.6803208, 0.6803208, 0.7086675, 0.7086675, 0.7086675, 0.7086675, 0.7086675, 0.73701423, 0.76536095, 0.76536095, 0.79370767, 0.79370767, 0.79370767, 0.8220543, 0.8220543, 0.87874776, 0.87874776, 0.87874776, 0.9070944, 0.9070944, 0.93544114, 0.96378785, 0.96378785, 0.9921345, 0.9921345, 0.9921345, 1.0204812, 1.0204812, 1.0488279, 1.0488279, 1.0488279];[0.004071200033649802, 0.018421500106342137, 0.0345351001014933, 0.0504990000044927, 0.06804890010971576, 0.08504690008703619, 0.10057620005682111, 0.11849250004161149, 0.13414870004635304, 0.1515108000021428, 0.1680410000262782, 0.18392770003993064, 0.20137450005859137, 0.21995830000378191, 0.23385690001305193, 0.2511859000660479, 0.26760760007891804, 0.2838011001003906, 0.30105360003653914, 0.31766270007938147, 0.3339049000060186, 0.35215270007029176, 0.36819320009090006, 0.38725030003115535, 0.40198820002842695, 0.41950630000792444, 0.4343945001019165, 0.4521537000546232, 0.46727110003121197, 0.48551120003685355, 0.500302700093016, 0.5183554000686854, 0.5341928000561893, 0.5523010001052171, 0.5673851000610739, 0.5847242000745609, 0.6014770000474527, 0.6201363001018763, 0.6355959000065923, 0.6532706000143662, 0.6678422000259161, 0.6852205001050606, 0.7000795000931248, 0.7186720001045614, 0.734559900010936, 0.7524811000330374, 0.7674293000018224, 0.7853422000771388, 0.8029224000638351, 0.8182235000422224, 0.8353759000310674, 0.8506615000078455, 0.8689113000873476, 0.8856789000565186, 0.8997219000011683, 0.9185136000160128, 0.9352199001004919, 0.9518034000648186, 0.9693038000259548, 0.985999200027436, 1.001573600107804, 1.0195951000787318, 1.035215900046751, 1.0529117000987753, 1.0684585000853986, 1.085390800028108, 1.1007237000158057, 1.1178919000085443, 1.134433600003831, 1.151340200100094, 1.1668173000216484, 1.1849904000991955, 1.2007817000849172, 1.2176360000157729, 1.2333956001093611, 1.2509280000813305, 1.2682212000945583, 1.2853051000274718, 1.30101530009415, 1.3189136000582948, 1.3335069000022486, 1.350708800018765, 1.367964000091888, 1.3846812000265345, 1.4010653001023456, 1.4185129000106826, 1.4362620000028983, 1.4537576000439003, 1.467017500079237, 1.4840151000535116, 1.5000607999973, 1.5177463000873104, 1.5347266000462696, 1.5525042000226676, 1.5676632000831887, 1.5846872000256553, 1.5998315000906587, 1.6176586000947282, 1.6338923000730574, 1.6524646000470966, 1.6682461000746116, 1.6849432000890374, 1.7000475000822917, 1.7180301001062617, 1.7353693000040948, 1.7513367000501603, 1.7671214001020417]
S07;17;0;0;1;False;3000;True;;8;65.74383368991417;drag;L;4.025232;4.6772056;49.28;6.17;2.281792899942957;2.281908300006762;1685693665.7434494;1685693665.7596061;1685693666.5153122;1685693667.0154347;1685693670.0141044;1685693672.2962294;[0.0, 0.0, 0.0, 0.0, 0.0, 0.0, 0.0, 0.0, 0.0, 0.0, 0.0, 0.0, 0.0, 0.0, 0.0, 0.0, 0.0, 0.0, 0.0, 0.0, 0.0, 0.0, 0.0, 0.0, 0.0, 0.0, 0.0, 0.0, 0.0, 0.0, 0.2551203, 0.48189393, 1.0771747, 1.4456817, 1.7008021, 2.1260026, 2.7212832, 4.025232, 5.5559535, 5.924461, 6.6614747, 6.9165955, 7.0583286, 7.1150217, 7.1717157, 7.1717157, 7.2000623, 7.2000623, 7.228409, 7.228409, 7.228409, 7.228409, 7.228409, 7.228409, 7.228409, 7.228409, 7.228409, 7.228409, 7.228409, 7.228409, 7.228409, 7.228409, 7.228409, 7.228409, 7.228409, 7.228409, 7.228409, 7.029982, 6.774862, 6.5197415, 6.264621, 6.094541, 5.896114, 5.7260337, 5.5559535, 5.2724867, 5.130753, 5.045713, 4.960673, 4.875633, 4.7055526, 4.5921655, 4.5071254, 4.478779, 4.4504323, 4.4504323, 4.4504323, 4.4504323, 4.4504323, 4.422086, 4.337045, 4.2236586, 4.110272, 4.025232, 3.9401915, 3.8834982, 3.8551514, 3.8268046, 3.798458, 3.770111, 3.770111, 3.7417645, 3.7417645, 3.7417645, 3.7417645, 3.713418, 3.713418, 3.713418, 3.713418, 3.713418, 3.713418, 3.713418, 3.713418, 3.713418, 3.713418, 3.713418, 3.713418, 3.713418, 3.7417645, 3.7417645, 3.770111, 3.798458, 3.798458, 3.8268046, 3.8268046, 3.8551514, 3.8551514, 3.8834982, 3.8834982, 3.911845, 3.911845, 3.9401915, 3.968538, 3.968538, 3.996885, 4.025232, 4.025232];[0.0, 0.0, 0.0, 0.0, 0.0, 0.0, 0.0, 0.0, 0.0, 0.0, 0.0, 0.0, 0.0, 0.0, 0.0, 0.0, 0.0, 0.0, 0.0, 0.0, 0.0, 0.0, 0.0, 0.0, 0.0, 0.0, 0.0, 0.0, 0.0, 0.0, 0.3401604, 0.65197414, 1.3606416, 1.8141888, 2.1260026, 2.7496302, 3.3449106, 4.5071254, 5.6409936, 5.924461, 6.4630475, 6.6898212, 6.888248, 6.9732885, 7.0583286, 7.086675, 7.1150217, 7.143369, 7.143369, 7.1717157, 7.2000623, 7.341796, 7.4551826, 7.540222, 7.540222, 7.540222, 7.540222, 7.540222, 7.540222, 7.540222, 7.540222, 7.540222, 7.540222, 7.540222, 7.540222, 7.540222, 7.540222, 7.2000623, 6.7181687, 6.434701, 6.2079277, 6.1228876, 6.0095005, 5.9528074, 5.924461, 5.896114, 5.896114, 5.896114, 5.896114, 5.8677673, 5.75438, 5.66934, 5.612647, 5.5559535, 5.527607, 5.4992604, 5.4709134, 5.4709134, 5.32918, 5.1591, 4.7905927, 4.5354724, 4.337045, 4.252005, 4.166965, 4.166965, 4.1386185, 4.1386185, 4.1386185, 4.1386185, 4.1386185, 4.1386185, 4.1386185, 4.1386185, 4.1386185, 4.1386185, 4.1386185, 4.1386185, 4.166965, 4.166965, 4.2236586, 4.2236586, 4.252005, 4.337045, 4.365392, 4.422086, 4.4504323, 4.478779, 4.5354724, 4.5354724, 4.563819, 4.563819, 4.5921655, 4.5921655, 4.620512, 4.648859, 4.648859, 4.648859, 4.6772056, 4.6772056, 4.6772056, 4.6772056, 4.6772056, 4.6772056, 4.6772056, 4.6772056, 4.6772056];[0.003742299973964691, 0.017695699934847653, 0.034052199916914105, 0.04993350000586361, 0.06785049999598414, 0.08357729995623231, 0.10123609995935112, 0.11699859995860606, 0.13494819996412843, 0.1511231999611482, 0.16793200001120567, 0.18397549993824214, 0.20043969992548227, 0.216285299975425, 0.2347843999741599, 0.25078050000593066, 0.26724600000306964, 0.28482960001565516, 0.30162609997205436, 0.31764459994155914, 0.33581969991791993, 0.35083409992512316, 0.3683245999272913, 0.38343379995785654, 0.4007208999246359, 0.4176311999326572, 0.43329700001049787, 0.44965359999332577, 0.46739160001743585, 0.4834741000086069, 0.49979559995699674, 0.5174622000195086, 0.5345894999336451, 0.5510218000272289, 0.5664107999764383, 0.5852864999324083, 0.5997827999526635, 0.616408700007014, 0.6350343999220058, 0.650854800012894, 0.6687403999967501, 0.6842026999220252, 0.7031930999364704, 0.7172255999175832, 0.7352462999988347, 0.7502075999509543, 0.7668596999719739, 0.7836587999481708, 0.8005254999734461, 0.8168168999254704, 0.8345495000248775, 0.8499027999350801, 0.8672749999677762, 0.8825963999843225, 0.900376099976711, 0.9167045999784023, 0.9345471999840811, 0.9505423000082374, 0.968205799930729, 0.9852068999316543, 1.0016786999767646, 1.0171852000057697, 1.034382399986498, 1.0511409000027925, 1.0682289999676868, 1.083501199958846, 1.1004218999296427, 1.1179003999568522, 1.134554999996908, 1.152206499944441, 1.1673872999381274, 1.183742200024426, 1.2016822999576107, 1.216474000015296, 1.2343241999624297, 1.250821299967356, 1.267693999921903, 1.2835077999625355, 1.2995360000059009, 1.316088099963963, 1.3348018999677151, 1.3494885999243706, 1.3662327999481931, 1.383449999964796, 1.4006870000157505, 1.4174684999743477, 1.4341813999926671, 1.449961100006476, 1.468734800000675, 1.48310119996313, 1.5043995999731123, 1.5170168000040576, 1.534317799960263, 1.5494960999349132, 1.5665807999903336, 1.583130699931644, 1.6027548999991268, 1.6171368999639526, 1.6359311999985948, 1.6499265999300405, 1.6674341999460012, 1.6841989000095055, 1.7023486000252888, 1.717235999996774, 1.7335915999719873, 1.7493501999415457, 1.767111900029704, 1.7832372999982908, 1.8011344999540597, 1.8161727000260726, 1.8333123999182135, 1.850194099941291, 1.8668113999301568, 1.8824738999828696, 1.9007509999210015, 1.9156950999749824, 1.9329257999779657, 1.9495608999859542, 1.9665656000142917, 1.983600299921818, 2.0033818000229076, 2.016519199940376, 2.0376423000125214, 2.049891399918124, 2.0686736999778077, 2.08239210001193, 2.0999826999614015, 2.116763799916953, 2.1339364999439567, 2.1497024999698624, 2.1670547999674454, 2.182453399989754, 2.2004509000107646, 2.2157403000164777, 2.235039599938318, 2.251854799920693, 2.2682040999643505]
S07;18;0;0;1;False;1000;True;;8;155.88779836954527;drag;L;-5.8394203;2.948057;153.21;6.54;3.5308832000009716;3.5309882999863476;1685693673.170966;1685693673.176;1685693673.9315815;1685693674.4330924;1685693675.4140756;1685693678.945738;[0.0, 0.0, 0.0, 0.0, 0.0, 0.0, 0.0, 0.0, 0.0, 0.0, 0.0, 0.0, 0.0, 0.0, 0.0, 0.0, 0.0, 0.0, 0.0, 0.0, 0.0, 0.0, 0.0, 0.0, 0.0, 0.0, 0.0, 0.0, 0.0, 0.0, 0.0, 0.0, 0.0, 0.0, 0.0, 0.0, 0.0, 0.0, 0.0, 0.0, 0.0, 0.0, 0.0, 0.0, 0.0, 0.0, 0.0, 0.0, 0.0, 0.0, 0.0, 0.0, 0.0, 0.0, 0.0, 0.0, 0.0, 0.0, 0.0, 0.0, 0.0, 0.0, 0.0, 0.0, 0.0, 0.0, 0.0, 0.0, 0.0, 0.0, 0.0, 0.0, 0.0, 0.0, 0.0, 0.0, 0.0, 0.0, 0.0, 0.0, 0.0, 0.0, 0.0, 0.0, 0.0, 0.0, 0.0, 0.0, 0.0, 0.0, 0.0, 0.0, 0.0, 0.0, 0.0, 0.0, 0.0, 0.0, 0.0, 0.0, 0.0, 0.0, 0.0, 0.0, 0.0, 0.0, 0.0, 0.0, 0.0, 0.0, 0.0, 0.0, 0.0, 0.0, 0.0, 0.0, 0.0, 0.0, 0.0, 0.0, 0.0, 0.0, 0.0, 0.0, 0.0, 0.0, 0.0, 0.0, 0.0, 0.0, 0.0, -1.6724553, -2.2677362, -2.6929367, -3.146484, -3.3449106, -3.514991, -3.8268046, -4.025232, -4.3086987, -4.4504323, -4.620512, -5.130753, -5.66934, -6.094541, -6.4063544, -6.491395, -6.5764346, -6.6047816, -6.633128, -6.6614747, -6.6898212, -6.6898212, -6.7181687, -6.7465153, -6.831555, -6.888248, -6.9165955, -6.9732885, -7.029982, -7.029982, -7.0583286, -7.0583286, -7.0583286, -7.0583286, -7.0583286, -7.0583286, -7.0583286, -7.029982, -6.9732885, -6.888248, -6.6898212, -6.633128, -6.5764346, -6.5197415, -6.4630475, -6.434701, -6.4063544, -6.378008, -6.3496614, -6.292968, -6.1795807, -6.094541, -5.924461, -5.8394203, -5.7260337, -5.66934, -5.6409936, -5.612647, -5.5843005, -5.5843005, -5.5843005, -5.5843005, -5.5843005, -5.612647, -5.612647, -5.6409936, -5.6409936, -5.6409936, -5.697687, -5.697687, -5.7260337, -5.7260337, -5.75438, -5.75438, -5.782727, -5.811074, -5.811074, -5.8394203, -5.8394203, -5.8394203, -5.8394203];[0.0, 0.0, 0.0, 0.0, 0.0, 0.0, 0.0, 0.0, 0.0, 0.0, 0.0, 0.0, 0.0, 0.0, 0.0, 0.0, 0.0, 0.0, 0.0, 0.0, 0.0, 0.0, 0.0, 0.0, 0.0, 0.0, 0.0, 0.0, 0.0, 0.0, 0.0, 0.0, 0.0, 0.0, 0.0, 0.0, 0.0, 0.0, 0.0, 0.0, 0.0, 0.0, 0.0, 0.0, 0.0, 0.0, 0.0, 0.0, 0.0, 0.0, 0.0, 0.0, 0.0, 0.0, 0.0, 0.0, 0.0, 0.0, 0.0, 0.0, 0.0, 0.0, 0.0, 0.0, 0.0, 0.0, 0.0, 0.0, 0.0, 0.0, 0.0, 0.0, 0.0, 0.0, 0.0, 0.0, 0.0, 0.0, 0.0, 0.0, 0.0, 0.0, 0.0, 0.0, 0.0, 0.0, 0.0, 0.0, 0.0, 0.0, 0.0, 0.0, 0.0, 0.0, 0.0, 0.0, 0.0, 0.0, 0.0, 0.0, 0.0, 0.0, 0.0, 0.0, 0.0, 0.0, 0.0, 0.0, 0.0, 0.0, 0.0, 0.0, 0.0, 0.0, 0.0, 0.0, 0.0, 0.0, 0.0, 0.0, 0.0, 0.0, 0.0, 0.0, 0.0, 0.0, 0.0, 0.0, 0.0, 0.0, 0.0, 0.6803208, 0.9070944, 1.0488279, 1.1622148, 1.2756016, 1.332295, 1.4456817, 1.5307219, 1.6157619, 1.6724553, 1.7008021, 1.7574955, 1.8141888, 1.8425356, 1.8708823, 1.8708823, 1.8708823, 1.8708823, 1.8708823, 1.8708823, 1.899229, 1.899229, 1.899229, 1.9275757, 2.012616, 2.0693092, 2.1260026, 2.1543493, 2.211043, 2.211043, 2.2393894, 2.2393894, 2.2393894, 2.2393894, 2.2393894, 2.2393894, 2.2393894, 2.2677362, 2.2960827, 2.3244295, 2.4094696, 2.466163, 2.4945097, 2.4945097, 2.5228565, 2.5512033, 2.5512033, 2.5512033, 2.57955, 2.57955, 2.6362433, 2.66459, 2.7496302, 2.8063235, 2.8630168, 2.8630168, 2.8913634, 2.9197102, 2.9197102, 2.9197102, 2.9197102, 2.9197102, 2.9197102, 2.9197102, 2.8913634, 2.8913634, 2.8630168, 2.8630168, 2.83467, 2.83467, 2.83467, 2.83467, 2.83467, 2.83467, 2.83467, 2.83467, 2.8630168, 2.8630168, 2.8913634, 2.9197102, 2.948057];[0.0037918000016361475, 0.018314799992367625, 0.033181099919602275, 0.0525386999361217, 0.06785919994581491, 0.08611349994316697, 0.10089319990947843, 0.11885199998505414, 0.13444169994909316, 0.15238320000935346, 0.16731439996510744, 0.18559889995958656, 0.2000020999694243, 0.2185384000185877, 0.2330073999473825, 0.2515871999785304, 0.2677081999136135, 0.2853900999762118, 0.3015070999972522, 0.3184039000188932, 0.3344193999655545, 0.3521231999620795, 0.3667187999235466, 0.3848051999229938, 0.4006836999906227, 0.418692099978216, 0.4339081000071019, 0.4512612000107765, 0.46755199995823205, 0.4846308999694884, 0.5019929999252781, 0.5183044999139383, 0.534894899930805, 0.5522255999967456, 0.5675633999053389, 0.585160999908112, 0.6013975999085233, 0.6182225999655202, 0.6322529999306425, 0.6505910999840125, 0.6671693999087438, 0.6845027999952435, 0.7015315999742597, 0.718859100015834, 0.734378399909474, 0.7523291999241337, 0.7676976999500766, 0.7846530999522656, 0.8016540999524295, 0.8185683999909088, 0.8346505999797955, 0.8527099000057206, 0.8674740999704227, 0.8845505999634042, 0.9012480999808758, 0.9185976999578997, 0.9349480000091717, 0.951018999912776, 0.9673219999531284, 0.9848960000090301, 1.0004283000016585, 1.0188658999977633, 1.0344197999220341, 1.0516265999758616, 1.0668615999165922, 1.0845118999714032, 1.1015337000135332, 1.1177375999977812, 1.1346912999870256, 1.15211659995839, 1.1676670999731869, 1.1859651999548078, 1.2001506999367848, 1.219695399980992, 1.2342692000092939, 1.252982100006193, 1.2674841999541968, 1.2859950999263674, 1.2998770999256521, 1.3196619999362156, 1.3340195999480784, 1.352581899962388, 1.3674715999513865, 1.3854101999895647, 1.4011628999141976, 1.4192249999614432, 1.4346014999318868, 1.4526520000072196, 1.467133899917826, 1.4860196999507025, 1.5015875999815762, 1.5185063999379054, 1.5341866000089794, 1.5515453999396414, 1.5673806999111548, 1.584763899911195, 1.600144699914381, 1.6178763000061736, 1.6341747000114992, 1.6518557999515906, 1.6664704999420792, 1.6834731999551877, 1.699779799906537, 1.7182391999522224, 1.734171099960804, 1.7516044999938458, 1.7675822000019252, 1.7850713999941945, 1.8004453999456018, 1.8191483999835327, 1.8343860999448225, 1.8527639999520034, 1.8680524999508634, 1.8842062000185251, 1.9020209999289364, 1.9181845999555662, 1.9341899999417365, 1.9525103999767452, 1.9680735999718308, 1.9844446999486536, 2.0006313999183476, 2.0171610999386758, 2.0335569999879226, 2.0521848999196663, 2.066379699972458, 2.085139499977231, 2.1016730999108404, 2.118863599956967, 2.13366309995763, 2.15049489994999, 2.16659699997399, 2.18363609991502, 2.199553099926561, 2.2183330999687314, 2.234261899953708, 2.251451199990697, 2.2671649999683723, 2.282692299922928, 2.3000318999402225, 2.3178326999768615, 2.334750899928622, 2.3516323999501765, 2.3669396999757737, 2.3843440999044105, 2.40097199997399, 2.4169033999787644, 2.4331974999513477, 2.4510653999168426, 2.4663424999453127, 2.484429399948567, 2.5006844999734312, 2.5176868999842554, 2.533997799968347, 2.5526832999894395, 2.5666789999231696, 2.584999799961224, 2.5989067999180406, 2.6187715999549255, 2.6326108999783173, 2.6547166999662295, 2.6669277999317273, 2.683567599975504, 2.6997385999420658, 2.718875299906358, 2.7330207999330014, 2.7518280999502167, 2.7672039999160916, 2.784359599929303, 2.801237199921161, 2.8176423999248073, 2.833517099963501, 2.851228000014089, 2.868467799969949, 2.886643899953924, 2.8993427999084815, 2.9173523999052122, 2.932797299930826, 2.95046199997887, 2.968216500012204, 2.9865393999498338, 2.999780499958433, 3.019974499940872, 3.033567599952221, 3.0517785999691114, 3.0675088999560103, 3.0848761999513954, 3.1010972999501973, 3.1170344999991357, 3.1342420999426395, 3.155264199944213, 3.166158900014125, 3.1850353999761865, 3.200819299905561, 3.2168779999483377, 3.2345041999360546, 3.2506339999381453, 3.266776999924332, 3.2857110999757424, 3.2996746000135317, 3.3180542999180034, 3.332360800006427, 3.350673499982804, 3.3669932999182492, 3.3864002999616787, 3.4000973999500275, 3.4212711999425665, 3.4346919999225065, 3.450260999961756, 3.4667189000174403, 3.4838681999826804, 3.50056869990658, 3.5166505000088364]
S07;19;0;0;1;False;3000;False;;8;-149.96668594323688;drag;L;nan;nan;nan;nan;0.0017920000245794654;0.0019082999788224697;1685693679.7192993;1685693679.7253697;1685693680.4646509;1685693680.4646509;1685693680.4656458;1685693680.467793;[];[];[]
S07;19;0;0;1;False;3000;True;;8;-38.13248923545172;drag;L;5.4425664;-4.166965;-37.44;6.85;1.54917110002134;1.5492590999929234;1685693681.124213;1685693681.1422248;1685693681.8972714;1685693682.3992932;1685693685.3978267;1685693686.9467278;[0.0, 0.0, 0.0, 0.0, 0.0, 0.0, 0.0, 0.0, 0.0, 0.0, 0.0, 0.0, 0.0, 0.0, 0.0, 0.0, 0.0, 0.0, 0.0, 0.0, 0.0, 0.0, 0.0, 0.0, 0.0, 0.0, 0.0, 0.0, 0.0, 0.0, 0.0, 0.0, 0.0, 1.7574955, 2.6929367, 2.8630168, 3.2031772, 3.316564, 3.5433376, 3.7417645, 4.1386185, 4.4504323, 4.9039793, 5.4992604, 5.782727, 5.896114, 5.924461, 5.924461, 5.924461, 5.924461, 5.924461, 5.924461, 5.924461, 5.924461, 5.924461, 5.924461, 5.924461, 5.924461, 5.924461, 5.924461, 5.924461, 5.924461, 5.9528074, 5.9528074, 5.981154, 6.0095005, 6.0095005, 6.0095005, 6.0095005, 5.981154, 5.9528074, 5.8677673, 5.75438, 5.697687, 5.66934, 5.6409936, 5.5843005, 5.5843005, 5.5843005, 5.5559535, 5.5559535, 5.527607, 5.527607, 5.4992604, 5.4992604, 5.4992604, 5.4992604, 5.4992604, 5.4992604, 5.4709134, 5.4709134, 5.4709134, 5.4425664];[0.0, 0.0, 0.0, 0.0, 0.0, 0.0, 0.0, 0.0, 0.0, 0.0, 0.0, 0.0, 0.0, 0.0, 0.0, 0.0, 0.0, 0.0, 0.0, 0.0, 0.0, 0.0, 0.0, 0.0, 0.0, 0.0, 0.0, 0.0, 0.0, 0.0, 0.0, 0.0, 0.0, -1.3039483, -1.899229, -1.984269, -2.211043, -2.2960827, -2.4945097, -2.6362433, -2.8630168, -3.0614438, -3.3449106, -3.6850712, -3.8268046, -3.8551514, -3.8551514, -3.8551514, -3.8551514, -3.8551514, -3.8551514, -3.8551514, -3.8551514, -3.8551514, -3.8551514, -3.8551514, -3.8551514, -3.8551514, -3.8551514, -3.8551514, -3.8551514, -3.8834982, -3.996885, -4.025232, -4.0535784, -4.110272, -4.110272, -4.1386185, -4.1386185, -4.1386185, -4.1386185, -4.1386185, -4.1386185, -4.1386185, -4.1386185, -4.1386185, -4.1386185, -4.1386185, -4.1386185, -4.1386185, -4.1386185, -4.1386185, -4.1386185, -4.1386185, -4.1386185, -4.1386185, -4.1386185, -4.1386185, -4.1386185, -4.1386185, -4.1386185, -4.166965, -4.166965];[0.004068799898959696, 0.017215100000612438, 0.03476259997114539, 0.051012699957937, 0.06869679992087185, 0.08423719997517765, 0.10107789991889149, 0.11674599989783019, 0.1347889999160543, 0.15038379991892725, 0.17006489995401353, 0.18326949991751462, 0.20003329997416586, 0.2173233999637887, 0.23424499994143844, 0.24976329994387925, 0.26705539994873106, 0.2820356999291107, 0.30189869995228946, 0.31683189992327243, 0.33538899989798665, 0.3509221998974681, 0.3678588999900967, 0.3846629000036046, 0.40166159998625517, 0.4181342999218032, 0.4352885999251157, 0.45058619999326766, 0.4697143998928368, 0.4832939999178052, 0.5002956999232993, 0.5173602999420837, 0.533962499932386, 0.5513056999770924, 0.5696233999915421, 0.5834310998907313, 0.6015215999213979, 0.6192744999425486, 0.6327027999795973, 0.650583199923858, 0.6698268000036478, 0.6832744999555871, 0.6998902999330312, 0.7188727000029758, 0.7336656999541447, 0.7496216999134049, 0.7662406999152154, 0.7830709998961538, 0.8027818999253213, 0.8170186999486759, 0.8343406999483705, 0.8509360000025481, 0.8678354999283329, 0.8837047999259084, 0.9022421999834478, 0.917735599912703, 0.9349471000023186, 0.9509829999879003, 0.9670942999655381, 0.9836371999699622, 1.0004729999927804, 1.0181595999747515, 1.033737999969162, 1.0504873999161646, 1.0682669999077916, 1.0830178000032902, 1.099785799975507, 1.1165581999812275, 1.1341234999708831, 1.151368199964054, 1.1666480998974293, 1.1847957998979837, 1.2034184999065474, 1.2157771999482065, 1.235244799987413, 1.2507372999098152, 1.2660410999087617, 1.282890799921006, 1.299872599891387, 1.3143673999002203, 1.3314737000036985, 1.3475179999368265, 1.3657588999485597, 1.3826796999201179, 1.3998936999123544, 1.416474899975583, 1.434410799993202, 1.4499507999280468, 1.4689930999884382, 1.4846255999291316, 1.5000477998983115, 1.5166270999470726, 1.5324586000060663]
S07;20;0;0;1;False;1000;True;;8;-177.61309551957638;drag;L;-7.2567554;-0.8220543;-173.54;7.3;1.2495770000386983;1.2496593000832945;1685693687.7685237;1685693687.7759714;1685693688.5304053;1685693689.0329266;1685693690.0119345;1685693691.262525;[0.0, 0.0, 0.0, 0.0, 0.0, 0.0, 0.0, 0.0, 0.0, 0.0, 0.0, 0.0, 0.0, -0.1133868, -0.4535472, -1.417335, -1.8425356, -2.0976558, -2.4945097, -2.8063235, -3.1181371, -3.6850712, -4.081925, -4.620512, -4.960673, -5.32918, -5.6409936, -5.75438, -5.8394203, -5.896114, -5.9528074, -6.0095005, -6.037847, -6.094541, -6.151234, -6.264621, -6.4063544, -6.7465153, -6.9165955, -7.0583286, -7.143369, -7.2000623, -7.2000623, -7.228409, -7.228409, -7.228409, -7.228409, -7.228409, -7.228409, -7.2567554, -7.285102, -7.313449, -7.313449, -7.341796, -7.341796, -7.3701425, -7.3701425, -7.3701425, -7.3701425, -7.3701425, -7.3701425, -7.3701425, -7.3701425, -7.3701425, -7.3701425, -7.3701425, -7.3701425, -7.341796, -7.341796, -7.313449, -7.285102, -7.285102, -7.2567554, -7.2567554, -7.2567554];[0.0, 0.0, 0.0, 0.0, 0.0, 0.0, 0.0, 0.0, 0.0, 0.0, 0.0, 0.0, 0.0, 0.0283467, 0.19842692, 0.53858733, 0.6803208, 0.73701423, 0.79370767, 0.79370767, 0.79370767, 0.76536095, 0.73701423, 0.7086675, 0.6803208, 0.6803208, 0.6803208, 0.6803208, 0.6803208, 0.6803208, 0.65197414, 0.65197414, 0.59528077, 0.53858733, 0.42520052, 0.2267736, 0.0850401, -0.14173351, -0.2267736, -0.28346702, -0.3401604, -0.3401604, -0.3401604, -0.36850712, -0.36850712, -0.39685383, -0.4535472, -0.5102406, -0.56693405, -0.65197414, -0.7086675, -0.79370767, -0.8220543, -0.85040104, -0.85040104, -0.85040104, -0.85040104, -0.85040104, -0.85040104, -0.8220543, -0.8220543, -0.8220543, -0.8220543, -0.8220543, -0.8220543, -0.8220543, -0.8220543, -0.8220543, -0.8220543, -0.8220543, -0.8220543, -0.8220543, -0.8220543, -0.8220543, -0.8220543];[0.0037723000859841704, 0.019171300111338496, 0.03548130008857697, 0.05214800010435283, 0.06827740010339767, 0.08629510004539043, 0.10286410001572222, 0.1195457000285387, 0.13549540005624294, 0.15222360007464886, 0.16826230008155107, 0.18594620004296303, 0.20105270005296916, 0.2181601000484079, 0.23422320000827312, 0.25423450011294335, 0.26793630002066493, 0.28526170004624873, 0.3022315000416711, 0.32172900007572025, 0.335358600015752, 0.35233440005686134, 0.3691816000500694, 0.3864166000857949, 0.4025932000949979, 0.4201782000018284, 0.4351934000151232, 0.4526639000978321, 0.4676712000509724, 0.4856936000287533, 0.5015922000166029, 0.5212519000051543, 0.5343124000355601, 0.5525488000130281, 0.5678773000836372, 0.5861842000158504, 0.6022978000110015, 0.6196276000700891, 0.6362383000086993, 0.6537403000984341, 0.6675475001102313, 0.689208000083454, 0.7011282000457868, 0.7197190000442788, 0.736274000024423, 0.7514101000269875, 0.7675728000467643, 0.7863894000183791, 0.8013656000839546, 0.8197674000402912, 0.8341146000893787, 0.8516767000546679, 0.8697667000815272, 0.8858417000155896, 0.9007335000205785, 0.9194981000619009, 0.9346705001080409, 0.9525449000066146, 0.9689415000611916, 0.9875325000612065, 1.001733100041747, 1.0193143000360578, 1.0352636000607163, 1.0521220000227913, 1.0670868000015616, 1.0850006000837311, 1.100986700039357, 1.1199260000139475, 1.1351172000868246, 1.1519818000961095, 1.1696783000370488, 1.1856426000595093, 1.2030405000550672, 1.2199608000228181, 1.23460820002947]
S07;21;0;0;1;False;3000;True;;8;139.05659735128927;drag;L;-5.981154;3.8834982;147.0;7.13;1.382716599968262;1.3827737999381498;1685693692.0021665;1685693692.007734;1685693692.760708;1685693693.2617178;1685693696.2617579;1685693697.6449957;[0.0, 0.0566934, 0.0850401, 0.1133868, 0.1133868, 0.1133868, 0.1133868, 0.1133868, 0.1133868, 0.14173351, 0.14173351, 0.14173351, 0.1133868, 0.0850401, 0.0850401, 0.0850401, 0.0850401, 0.0850401, 0.0850401, 0.0850401, 0.0850401, 0.0850401, 0.0850401, -0.48189393, -2.7496302, -3.713418, -4.5921655, -5.045713, -5.32918, -5.4425664, -5.4425664, -5.4425664, -5.4425664, -5.4425664, -5.4425664, -5.4425664, -5.4425664, -5.4425664, -5.4425664, -5.4425664, -5.4425664, -5.4425664, -5.4425664, -5.4425664, -5.4425664, -5.4425664, -5.4425664, -5.4425664, -5.4425664, -5.4992604, -5.6409936, -5.66934, -5.75438, -5.75438, -5.782727, -5.782727, -5.782727, -5.782727, -5.782727, -5.782727, -5.782727, -5.782727, -5.782727, -5.782727, -5.782727, -5.782727, -5.782727, -5.782727, -5.782727, -5.782727, -5.782727, -5.782727, -5.811074, -5.8394203, -5.8394203, -5.8677673, -5.8677673, -5.896114, -5.896114, -5.924461, -5.9528074, -5.9528074, -5.981154];[0.0, 0.1133868, 0.2551203, 0.3118137, 0.36850712, 0.42520052, 0.48189393, 0.7086675, 1.7008021, 2.2677362, 2.6362433, 2.7779768, 2.9197102, 2.9764037, 2.9764037, 2.9764037, 2.9764037, 2.9764037, 2.9764037, 2.9764037, 2.9764037, 2.9764037, 2.9764037, 3.0614438, 3.5433376, 3.7417645, 3.911845, 3.996885, 4.025232, 4.0535784, 4.0535784, 4.0535784, 4.0535784, 4.0535784, 4.0535784, 4.0535784, 4.0535784, 4.0535784, 4.0535784, 4.0535784, 4.0535784, 4.0535784, 4.0535784, 4.0535784, 4.0535784, 4.0535784, 4.0535784, 4.0535784, 4.0535784, 4.0535784, 3.968538, 3.968538, 3.911845, 3.911845, 3.8834982, 3.8834982, 3.8834982, 3.8834982, 3.8834982, 3.8834982, 3.8834982, 3.8834982, 3.8834982, 3.8834982, 3.8834982, 3.8834982, 3.8834982, 3.8834982, 3.8834982, 3.8834982, 3.8834982, 3.8834982, 3.8834982, 3.8834982, 3.8834982, 3.8834982, 3.8834982, 3.8834982, 3.8834982, 3.8834982, 3.8834982, 3.8834982, 3.8834982];[0.0036134999245405197, 0.01720729994121939, 0.034806699957698584, 0.051640399964526296, 0.06873319996520877, 0.08402680000290275, 0.10142789990641177, 0.11718109995126724, 0.13387449993751943, 0.15090519993100315, 0.16782119998242706, 0.18406919995322824, 0.20316529995761812, 0.21750039991457015, 0.23584779992233962, 0.2530589000089094, 0.2702702999813482, 0.2864343000110239, 0.3022939999355003, 0.31846549990586936, 0.33532680000644177, 0.3537257999414578, 0.3697868000017479, 0.38422339991666377, 0.4011280999984592, 0.4193155999528244, 0.43412639992311597, 0.44970679993275553, 0.4696299999486655, 0.4836267000064254, 0.5010776999406517, 0.5173949999734759, 0.5360570999328047, 0.5519214000087231, 0.5698030999628827, 0.5852630999870598, 0.6037400999339297, 0.6190293999388814, 0.635305600007996, 0.6519387000007555, 0.6688358999090269, 0.685025499900803, 0.7021491999039426, 0.7174365000100806, 0.7354522999376059, 0.7503605999518186, 0.7680553999962285, 0.7846488999202847, 0.8015495999716222, 0.8191212000092492, 0.8346335999667645, 0.8522313999710605, 0.8692292999476194, 0.8832149999216199, 0.9022440999979153, 0.9182531000114977, 0.933683899929747, 0.950912999920547, 0.9681799999671057, 0.9856486999196932, 1.0016836998984218, 1.0177481999853626, 1.0355429999763146, 1.0516463000094518, 1.0678847999079153, 1.0848923999583349, 1.1009477999759838, 1.1169274999992922, 1.1341586000053212, 1.1495741999242455, 1.1682933999691159, 1.1848171999445185, 1.2009686999954283, 1.2189101999392733, 1.2341789999045432, 1.2505115999374539, 1.2692330999998376, 1.2842219999292865, 1.3018235999625176, 1.319040699978359, 1.3336096999701113, 1.3511932999826968, 1.3674096999457106]
