subj;trial;block;prior;kappa;ct;delay;fix;keypressed;R;T_Angle;resp_mod;choice_x;choice_y;init_resp_angle;choiceAngle;choiceR;RT;MT;ts_b;ts_f;ts_p;ts_d;ts_r;ts_e;m_pos_x;m_pos_y;m_clock
S08;0;0;0;1;False;3000;False;;8;140.6014649616209;eye;L;nan;nan;nan;nan;0.002778199966996908;0.002840899978764355;1685696443.5753448;1685696443.5804493;1685696444.3368256;1685696444.837177;1685696447.8180356;1685696447.8210404;[];[];[]
S08;0;0;0;1;False;3000;False;;8;-139.32155859231676;eye;L;nan;nan;nan;nan;0.0018431999487802386;0.0018836000235751271;1685696448.3862023;1685696448.398291;1685696449.1523178;1685696449.654331;1685696452.6328664;1685696452.634865;[];[];[]
S08;0;0;0;1;False;3000;True;space;8;-66.32969648041593;eye;L;nan;nan;nan;nan;10.132557500037365;10.132689399993978;1685696453.1876962;1685696453.197696;1685696453.9530225;1685696454.454471;1685696457.4530723;1685696467.5850875;[-0.27636903524398804, -0.3512876629829407, -0.3719685971736908, -0.2490839958190918, -0.1969674527645111, -0.21376961469650269, -0.2664541006088257, -0.34011396765708923, -0.24414917826652527, -0.2749585211277008, -0.26966753602027893, -0.2969735264778137, -0.30906566977500916, -0.3841162323951721, -0.2290378212928772, -0.3617144823074341, -0.31422415375709534, -0.3173181116580963, -0.37433040142059326, -0.49446985125541687, -0.37313392758369446, -0.34394970536231995, -0.38498541712760925, -0.3623022437095642, -0.35073161125183105, -0.35675984621047974, -0.3302233815193176, -0.2781272232532501, -0.4382253885269165, -0.4392831325531006, -0.45157742500305176, -0.47628605365753174, -0.38200753927230835, -0.45177561044692993, -0.35137543082237244, -0.3308388888835907, -0.3679448664188385, -0.4273642599582672, -0.35482215881347656, -0.5935014188289642, -0.30219486355781555, -0.3707370162010193, -0.2546575367450714, -0.42730027437210083, -0.32747483253479004, -0.34264564514160156, -0.3504773676395416, -0.41046980023384094, -0.45258307456970215, -0.5219644010066986, -0.43574637174606323, -0.4386715888977051, -0.4111674129962921, -0.40998169779777527, -0.45562154054641724, -0.37450310587882996, -0.40588831901550293, -0.5286591053009033, -0.42592939734458923, -0.3627767562866211, -0.35030919313430786, -0.4035406708717346, -0.4640597105026245, -0.4591798186302185, -0.3799435794353485, -0.3907526135444641, -0.3804464042186737, -0.4454365074634552, -0.4678167402744293, -0.4761609137058258, -0.46651777625083923, -0.49054691195487976, -0.5909538865089417, -0.4590575098991394, -0.4370051324367523, -0.2735706567764282, -0.3796366751194, -0.42224428057670593, -0.3403410315513611, -0.30682674050331116, -0.3759051263332367, -0.29195207357406616, -0.3575882613658905, -0.3742392361164093, -0.3299034535884857, -0.4262765049934387, -0.34582510590553284, -0.26995348930358887, -0.22019535303115845, -0.3772188127040863, -0.25771185755729675, -0.29576006531715393, -0.41265663504600525, -0.4941521883010864, -0.46161749958992004, -0.437590628862381, -0.3484638035297394, -0.41527098417282104, -0.2350439727306366, -0.45095059275627136, -0.5870603919029236, -0.4449857771396637, -3.924849808216095, -7.1611762046813965, -2.0411073565483093, -2.2460628151893616, 0.032680779695510864, -0.22890758514404297, -0.6986280381679535, -0.6549474000930786, -0.5181462168693542, -0.708832323551178, -0.7831428050994873, -0.714027613401413, -0.8172743022441864, -0.7505016624927521, -0.7926404178142548, -0.6930091977119446, -0.7145094871520996, -0.698930412530899, -0.574558287858963, -0.6658606231212616, -0.6073058843612671, -0.5467636287212372, -0.6723509132862091, -0.7124449610710144, -0.7063770890235901, -0.5859301686286926, -0.5588370859622955, -0.45902976393699646, -0.6070595681667328, -0.512922614812851, -0.7393483519554138, -0.723867803812027, -0.769628256559372, -0.8593485057353973, -0.7720563113689423, -0.7286961674690247, -0.6526263654232025, -0.7088238298892975, -0.6128896176815033, -0.6440126597881317, -0.6065952479839325, -0.5626881122589111, -0.7707692384719849, -0.6372936069965363, -0.6034893989562988, -0.6640650629997253, -0.7225178778171539, -0.74403515458107, -0.6943104267120361, -0.6658453345298767, -0.6004967987537384, -0.7197461128234863, -0.7914003431797028, -0.6493891477584839, -1.557594895362854, -3.010052978992462, -1.7884888648986816, -1.4033318758010864, -1.1051556468009949, -0.8857609629631042, -0.8077274262905121, -0.8297163844108582, -0.9693878591060638, -0.7778948545455933, -0.8281246721744537, -0.8452014625072479, -0.976112574338913, -0.740826815366745, -0.7750817537307739, -0.722100555896759, -0.6444758474826813, -0.6924786269664764, -0.7463046610355377, -0.7267046868801117, -0.7170388996601105, -0.6994723081588745, -0.7163271307945251, -0.7120282053947449, -0.7217766642570496, -0.8981560468673706, -0.802024781703949, -0.6900624632835388, -0.7519342601299286, -0.846648782491684, -0.6128058135509491, -0.6099604368209839, -0.6915165781974792, -0.6482985615730286, -0.469809353351593, -0.6983449161052704, -0.6346549093723297, -0.6476926803588867, -0.516126424074173, -0.48663076758384705, -0.5776811242103577, -0.5671325623989105, -0.6613278388977051, -0.5689473748207092, -0.5414080917835236, -0.5025965869426727, -0.631348043680191, -0.5815219581127167, -0.54542276263237, -0.7017678618431091, -0.6750717163085938, -0.7230212688446045, -0.665092796087265, -0.847355455160141, -0.7703128457069397, -0.7947366535663605, -0.6911315321922302, -0.8010565042495728, -0.7375544905662537, -0.72483891248703, -0.8527596890926361, -0.7469830214977264, -0.6340071260929108, -0.7338421940803528, -0.6832771599292755, -0.6462742388248444, -0.7246730029582977, -0.7460475862026215, -0.6864900290966034, -0.7159290611743927, -0.40479886531829834, -0.36720478534698486, -0.3108646273612976, -0.4419558048248291, -0.29993101954460144, -0.3380126357078552, -0.37443119287490845, -0.5108326077461243, -0.2866191864013672, -0.36044326424598694, -0.42074713110923767, -0.3937655985355377, -0.2733549177646637, -0.3579336702823639, -0.46514859795570374, -0.5512114763259888, -0.5582578182220459, -0.5364200472831726, -0.43420901894569397, -0.5117335021495819, -0.46616387367248535, -2.7351459860801697, -5.896700978279114, -5.888784319162369, -6.204008460044861, -6.14603129029274, -6.124793738126755, -6.12616291642189, -6.252544075250626, -6.299135208129883, -6.170730859041214, -6.177311182022095, -6.29424512386322, -6.2362900376319885, -6.2821818590164185, -6.134003132581711, -6.125658959150314, -6.098009258508682, -6.262020170688629, -6.201903164386749, -6.227894902229309, -6.342160135507584, -6.104668289422989, -6.275756686925888, -6.338136404752731, -6.257795423269272, -6.140067607164383, -6.104844957590103, -5.9936147928237915, -6.189332544803619, -6.239827364683151, -6.195320576429367, -6.0963320434093475, -6.112682908773422, -6.119319289922714, -6.008583456277847, -6.046123176813126, -6.03755646944046, -6.104436129331589, -6.094571024179459, -6.123353213071823, -6.0915603041648865, -6.1947769820690155, -6.235831946134567, -6.120153367519379, -6.100488841533661, -6.128882020711899, -6.137413054704666, -6.206541836261749, -6.2682211101055145, -6.261043965816498, -6.178628832101822, -6.20823547244072, -6.306705325841904, -6.203694194555283, -6.287875443696976, -6.149862498044968, -6.117680013179779, -6.162579774856567, -6.202626258134842, -6.3469856679439545, -6.315652549266815, -6.270402282476425, -6.2918040454387665, -6.330778062343597, -6.3824993669986725, -6.190658688545227, -6.280711889266968, -6.168324887752533, -6.250035047531128, -6.370230555534363, -6.398201882839203, -5.907914310693741, -3.992212474346161, -3.7311722338199615, -3.4355928003787994, -3.645702213048935, -3.5450562834739685, -3.4862642884254456, -3.390245705842972, -3.5787223279476166, -3.4559368193149567, -3.534896731376648, -3.50286203622818, -3.4939686059951782, -3.4715594947338104, -3.429425835609436, -3.3184017837047577, -3.346676617860794, -3.398807317018509, -3.318914234638214, -3.2126398384571075, -3.178113102912903, -3.2501976788043976, -3.303600162267685, -3.1884368658065796, -3.295518159866333, -3.2730031609535217, -3.1705361902713776, -3.1992096602916718, -5.687848061323166, -5.18962287902832, -5.090509206056595, -5.184111624956131, -4.987267047166824, -5.090665489435196, -5.082743167877197, -5.047377824783325, -5.1282272934913635, -5.0113884806633, -5.05945298075676, -5.080078989267349, -5.211432904005051, -5.004115074872971, -5.033793061971664, -4.959003537893295, -5.059980720281601, -4.939929038286209, -4.869481474161148, -5.0578708946704865, -5.0097741186618805, -4.924412250518799, -5.081149190664291, -4.924324482679367, -4.881755948066711, -4.762216717004776, -4.924283146858215, -4.919770747423172, -4.78461280465126, -4.864022314548492, -4.950772613286972, -4.798539012670517, -4.833770155906677, -4.041839808225632, 1.1162030696868896, 2.0128676295280457, 2.0774964690208435, 2.021525502204895, 2.1319125294685364, 2.1577717661857605, 2.265834927558899, 2.2329078316688538, 2.205777943134308, 2.1864327788352966, 2.0868791341781616, 2.2490718364715576, 2.217792510986328, 2.333074152469635, 2.082573413848877, 2.2134324312210083, 2.2500831484794617, 2.320373296737671, 2.3441781997680664, 2.2875707745552063, 2.3374489545822144, 2.238992691040039, 2.329789936542511, 2.276454269886017, 2.3989917635917664, 2.2966023683547974, 2.5721763968467712, 2.29498291015625, 2.2816410660743713, 2.437676429748535, 2.390227437019348, 2.3772366642951965, 2.441605031490326, 2.317299723625183, 2.3564951419830322, 2.429910957813263, 2.4172916412353516, 2.3238624930381775, 2.248207747936249, 2.2116034626960754, 2.1431921124458313, 2.1400222778320312, 2.0626948475837708, 2.203763246536255, 2.3388883471488953, 2.303947687149048, 2.1928505897521973, 2.0629156827926636, 2.312954366207123, 2.104357957839966, 2.060116171836853, 2.106151819229126, 2.10915744304657, 2.2394219040870667, 2.1971076130867004, 2.1994133591651917, 2.195356786251068, 2.121671438217163, 2.2056397795677185, 2.314290702342987, 2.2293574810028076, 2.1799277663230896, 2.292155086994171, 2.1862255334854126, 2.2354899048805237, 2.2740341424942017, 2.253459095954895, 2.1613051295280457, 2.234836459159851, 2.197900354862213, 2.165006101131439, 2.1130271553993225, 2.1081778407096863, 2.1892560720443726, 2.2217392325401306, 2.244549810886383, 2.1139546632766724, 2.1705326437950134, 2.1101325154304504, 2.2072105407714844, 2.2566527128219604, 2.2762311697006226, 2.29734867811203, 2.2558780908584595, 2.197206139564514, 2.175114691257477, 2.209481179714203, 2.0726211071014404, 2.1088414788246155, 2.371804118156433, 2.38848340511322, 2.328160285949707, 2.340933620929718, 2.339633524417877, 2.2683388590812683, 2.399979293346405, 2.180002510547638, 2.1437957286834717, 2.337661862373352, 2.299062132835388, 2.296011209487915, 2.2504217624664307, 2.329731047153473, 2.3621394634246826, 2.258952796459198, 2.2416110038757324, 2.2573038935661316, 2.2208626866340637, 2.283191442489624, 2.097848415374756, 2.239057242870331, 2.0950862765312195, 2.235454797744751, 2.209560453891754, 2.0359001755714417, 2.080368459224701, 2.1851723194122314, 2.125632882118225, 2.221674680709839, 2.1934927105903625, 2.177716016769409, 2.1964643597602844, 2.1280518770217896, 2.19877690076828, 2.1620389819145203, 2.1258967518806458, 2.309585213661194, 2.218223989009857, 2.1616369485855103, 2.1200236678123474, 2.179190516471863, 2.246991455554962, 2.177805483341217, 2.234387993812561, 2.300244450569153, 2.199712336063385, 2.0902233719825745, 2.4127288460731506, 2.325930416584015, 2.2365487813949585, 2.410034656524658, 2.2494331002235413, 2.4083959460258484, 2.3162283897399902, 2.2583922147750854, 2.216861605644226, 2.3486549258232117, 2.332981288433075, 2.35092556476593, 2.298618197441101, 2.3786681294441223, 2.4804856181144714, 2.391043961048126, 2.4950698018074036, 2.5059258341789246, 2.5224918723106384, 2.333853304386139, 2.543207347393036, 2.5712024569511414, 2.4795150756835938, 2.510516941547394, 2.5273627042770386, 2.4438926577568054, 2.425626754760742, 2.583219289779663, 2.504691421985626, 2.4707598090171814, 2.5577043294906616, 2.419338047504425, 2.4207332730293274, 2.388594388961792, 2.5541630387306213, 2.5366989374160767, 2.614357054233551, 2.5386264324188232, 2.4392834305763245, 2.6008192896842957, 2.3995840549468994, 2.5350579619407654, 2.570379137992859, 2.4474520683288574, 2.457810938358307, 2.5029983520507812, 2.578258991241455, 2.571237564086914, 2.4754788875579834, 2.5904207825660706, 2.623266339302063, 2.687759280204773, 2.6854841113090515, 2.571300983428955, 2.6636078357696533, 2.633262813091278, 2.618449866771698, 2.5381757020950317, 2.548959255218506, 2.488919258117676, 2.5781683921813965, 2.6618853211402893, 2.4741199016571045, 2.6273432970046997, 2.6868057250976562, 2.6678603291511536, 2.7887715697288513, 2.8191086649894714, 2.7595884799957275, 2.7349342107772827, 2.837859272956848, 2.787041127681732, 2.7578410506248474, 2.96126651763916, 2.829653263092041, 2.880779445171356, 2.8906739950180054, 2.9676899909973145, 2.684610962867737];[1.3352818876504897, 1.3467789083719253, 1.404681598395109, 1.1019746236503123, 1.0992645666003227, 1.116060995310545, 1.053493943810463, 1.21931357011199, 1.1032875783741474, 1.0734098218381405, 1.075061573088169, 1.0764624573290347, 1.169580131024122, 1.0984193086624146, 1.166445869207382, 1.2905049629509449, 1.0852705366909503, 1.0918573714792728, 1.1851556316018104, 1.1392409808933734, 0.9679612152278423, 1.1656765647232532, 1.0951529949903487, 1.1586648948490619, 1.2175266154110431, 1.2646984376013277, 1.2304387025535106, 1.2801173038780689, 1.1475968062877655, 1.3508050717413425, 1.2920968338847159, 1.29023392572999, 1.3113174699246883, 1.283710753172636, 1.2788197919726372, 1.2507078744471072, 1.4262095175683498, 1.2510756656527517, 1.3950033634901047, 1.1385882854461669, 1.241062731295824, 1.407686959952116, 1.3590616218745708, 1.3125135004520416, 1.4582089282572268, 1.5454309120774268, 1.5269370339810848, 1.5869538143277166, 1.6286951221525667, 1.6105349980294703, 1.604436345398426, 1.5567744500935077, 1.70412225946784, 1.8309758730232715, 1.5133984096348285, 1.4654175728559493, 1.6285057112574577, 1.427594643831253, 1.5446817778050899, 1.5086993806064128, 1.4752439327538012, 1.3721104882657527, 1.5265307933092116, 1.5015796110033988, 1.5790644250810146, 1.4124594211578367, 1.4082463681697845, 1.2990587085485457, 1.3800915889441967, 1.2603391505777835, 1.3622784554958343, 1.4128603041172028, 2.3492898054420945, 2.530662555992603, 2.494823556393385, 2.5341554693877697, 2.472766169160604, 2.3738523960113525, 2.4507525891065596, 2.463088249415159, 2.4336242973804474, 2.576675221323967, 2.5634561687707897, 2.6257742442190644, 2.5981933705508706, 2.427265953272581, 2.512318693846464, 2.508292845636606, 2.4306848041713236, 2.3918212182819842, 2.329173485934734, 2.3224766604602336, 2.4282495662569996, 2.377139825373888, 2.4096267879009243, 2.4694343023002148, 2.4694317810237405, 2.3429595105350014, 2.3973535291850565, 2.452177110314369, 2.1094051614403724, 1.7595748990774154, -10.316936007142067, -4.550021588802338, -2.197544574737549, -0.7014985352754592, 1.513584353774786, 1.7909235052764414, 2.2519436359405516, 2.500928512215614, 2.9019069649279117, 3.3638921141624447, 3.6111120969057082, 3.8342649199068544, 3.7832333385944366, 3.4696930691599843, 3.608034563809633, 3.2481526024639606, 3.152055410295725, 2.907955507189035, 3.0877968974411485, 2.9470507353544235, 2.902027355879545, 3.0147990100085735, 2.9007415048778054, 2.926457894593477, 2.8313247755169866, 2.8573957197368145, 2.911247033625841, 2.9944690123200415, 2.8217442400753496, 2.852242860943079, 2.821710202842951, 2.926505798846483, 2.8139998242259026, 2.867404557019472, 2.6488946646451947, 2.760622825473547, 2.8314142808318135, 2.8561366572976112, 2.737807164341211, 2.803635486960411, 2.777157041430473, 2.582079892605543, 2.6378782622516153, 2.597690691053867, 2.726388933509588, 2.6660557329654693, 2.711880248039961, 2.686933162808418, 2.6048476494848725, 2.6214896500110623, 2.7690148942172526, 2.7264652021229265, 2.5885813191533087, 2.4620876178145408, -8.749679034948349, -1.9946725845336912, 0.5845276951789855, 1.8102254524827002, 1.2989931553602219, 2.182464189827442, 2.4576249584555625, 2.7476376213133333, 2.6467298336327074, 2.666397365927696, 2.513322792202234, 2.4744163446128367, 2.405186504870653, 2.349196833372116, 2.358999241143465, 2.3327057942748066, 2.423209534585476, 2.3111977301537987, 2.345975902676582, 2.3262714967131615, 2.388597135990858, 2.347533421218395, 2.3178661912679672, 2.3866087943315506, 2.2832979150116444, 2.266219103336334, 2.3263748690485953, 2.2334119386970994, 2.344160898774862, 2.3902498327195643, 2.2471040457487104, 2.3610808700323105, 2.3940033830702303, 2.4504834428429603, 2.22723134458065, 2.414849927276373, 2.340436027944088, 2.399028917402029, 2.310829623788595, 2.411869148164987, 2.2555266849696634, 2.35428729057312, 2.5032575413584706, 2.4848229132592676, 2.4710510708391666, 2.465531366318464, 2.3572721667587757, 2.446019838005304, 2.4121798954904077, 2.22664735391736, 2.225155073404312, 2.340667039901018, 2.3401671968400475, 2.2160327799618242, 2.188728931546211, 2.325191444903612, 2.4075442135334013, 2.347082743048668, 2.317271800339222, 2.5282793194055557, 2.34919935464859, 2.3735473215579983, 2.429971282929182, 2.5680685289204117, 2.5775765776634216, 2.6672735095024107, 2.386506052315235, 2.5320079721510407, 2.5991019755601883, 2.448629043996334, 1.457618949562311, 1.0799648255109786, 1.1456547930836676, 1.1919955395162105, 1.1367972336709498, 1.1468451507389545, 1.2027238860726355, 1.213249585032463, 1.2577573634684085, 1.192952048778534, 1.1638959132134914, 1.1563194774091243, 1.0350148782134054, 1.1560235425829886, 1.0749648191034793, 0.962915825843811, 1.0263813972473144, 1.1015431702136993, 1.0362729951739311, 1.106608099490404, 1.1527881145477294, 2.669596865773201, 5.20851660221815, 5.407566179707646, 5.849584710225463, 5.880177721381187, 5.753855309262871, 5.734813841432333, 5.846556184440851, 6.009778738394379, 5.915408147871494, 5.695171969011426, 5.799433054402471, 5.826827511191368, 5.744481991231441, 5.913588574156165, 5.646627311781049, 5.785427206009626, 5.836583905667066, 5.686889575794339, 5.7138426516205065, 5.696357126533985, 5.6967778645455835, 5.85260661765933, 5.767920880392193, 5.80750838778913, 5.688686300441622, 5.69228778630495, 5.814760997146368, 5.5543378774076695, 5.614315577968955, 5.644945777952671, 5.649663558974861, 5.608984969183802, 5.489419262856245, 5.768518580496311, 5.713278043270111, 5.631597037240862, 5.736939119920134, 5.5902274601161475, 5.70743388198316, 5.538652858883142, 5.370652013272046, 5.388597356155515, 5.490826135128736, 5.582686007022858, 5.587647406384349, 5.570128316804766, 5.473515366017818, 5.474424128606915, 5.5124831121414894, 5.3585486255586146, 5.388312924653292, 5.344229981303215, 5.237846611440181, 5.271724688261747, 5.453579790517687, 5.280076731741428, 5.198075681179762, 5.233820132911205, 5.037419313937425, 5.039697602391243, 5.116585819423198, 5.312738135084509, 5.069670221954584, 5.131855615228414, 4.952599791437387, 5.129460402578115, 4.93069620206952, 4.9506064072251315, 4.936597879976034, 4.967189472913741, 3.6041514828801153, -0.9672240570187568, -2.8536008834838866, -2.846002386510372, -2.919460406899452, -2.8660849839448925, -2.8986340329051017, -2.8991685435175896, -3.0110129982233045, -2.8834408208727833, -2.9862881004810333, -3.015673577785492, -3.061575937271118, -3.073856444656849, -3.1566948741674423, -3.1128498762845993, -3.0331832125782965, -3.0964477121829983, -3.094430691003799, -3.03346307426691, -3.006531429290771, -3.277158312499523, -3.2755207434296607, -3.2179354190826412, -3.3784871533513066, -3.3033518537878988, -3.377162852883339, -3.4909909218549724, -5.324306854605674, -6.026795621216297, -5.988020280003547, -6.206050814688205, -6.041149248182773, -6.271735109388828, -6.277871896326541, -6.171734981238842, -6.259177261590957, -6.165258452296257, -6.225699752569199, -6.196546863019466, -6.268948468565941, -6.2271444439887995, -6.307015331089496, -6.230923837423324, -6.39665994644165, -6.378854691982269, -6.3328029468655584, -6.243542195856571, -6.376591846346855, -6.511173172295093, -6.399877095222473, -6.343495680391788, -6.41546992957592, -6.418165804445743, -6.40599560290575, -6.4403549283742905, -6.362009413540363, -6.246152347326278, -6.32188266813755, -6.277874417603016, -6.180652736127376, -6.112010353803634, -4.934109064936638, -5.052327936887741, -4.882599386572838, -4.856020720303058, -5.005543130636215, -5.143817496299743, -5.081548900902271, -5.042769777774811, -5.142735238373279, -5.171610157191753, -5.28300834596157, -5.230939574539661, -5.257688426971435, -5.230210295319557, -5.220656548440456, -5.354698321223259, -5.373299038410186, -5.206224131584167, -5.06731062233448, -5.2531507596373554, -5.352065478265285, -5.262342073023319, -5.318604987859725, -5.281575630605221, -5.36770117431879, -5.387203878164291, -5.4178701639175415, -5.368514285981655, -5.350456273555755, -5.592832884192466, -5.556119316816329, -5.588808926939964, -5.6521982297301285, -5.54532573223114, -5.6851015180349345, -5.766093742847442, -5.7180842265486715, -5.76223366856575, -5.449155423045158, -5.711682075262069, -5.8632107913494105, -5.735467797517776, -5.780234321951866, -5.533879137039184, -5.704556317627429, -5.857036815583705, -5.568373350799083, -5.795065100491047, -5.932843405008316, -5.836420968174934, -5.913671618700027, -5.805133187770843, -5.929456700384616, -5.928961269557476, -6.02228631824255, -5.845230308175086, -6.002407313883304, -5.913280190527439, -5.8932020053267475, -6.129479648172855, -6.105706532299518, -6.003255093097686, -6.064444582164287, -6.130246116220951, -6.166738441586494, -6.144084772467613, -6.063236890733242, -6.146162934601307, -5.987940859794616, -6.288813605904579, -6.171176518499851, -6.290831887722015, -6.143467690050602, -6.3108205676078795, -6.268875981867313, -6.25074800401926, -6.255713658034801, -6.280802249908447, -6.335670268535614, -6.24239564538002, -5.997372955083847, -5.954942393302917, -6.20342742651701, -6.0748297199606895, -6.147368735074997, -6.25119742155075, -6.202449171245098, -6.148212102055549, -6.233296358585357, -6.207815077900886, -6.186107517778873, -6.235973954200745, -6.1815087094902985, -6.21053616553545, -6.293928645551205, -6.256583498418331, -6.14235076457262, -6.173543366789818, -6.144865107536315, -6.1415244162082665, -6.099850237369537, -5.9728138312697405, -5.844514895975589, -6.041590471565723, -6.199922221899032, -6.205267958343029, -6.025850772857666, -6.152575801312923, -6.130766759812832, -6.208113849163055, -6.149559094011783, -6.231326611340045, -6.053835050761699, -6.1356504723429675, -6.020457132160663, -6.043207240104675, -6.1532452002167695, -6.066430087387562, -6.200286546349525, -6.091110862791538, -5.975369775295257, -6.113830085098743, -6.287626715004444, -6.138951453566551, -6.3487285897135735, -6.284756241738796, -6.172558178007602, -6.033675554394722, -6.17797072827816, -6.446279928088188, -6.1662316650152205, -6.29205659776926, -6.160085423290729, -6.18132780790329, -6.1665001809597015, -6.0890339612960815, -6.091570365428924, -6.429403764009475, -6.075378097593784, -6.158691157400607, -6.294121523201465, -6.0400751844048495, -6.18077312707901, -6.376857210695743, -6.219340462982654, -6.124024866521358, -6.12551557123661, -6.391310428082942, -6.268483923375606, -6.211980856955051, -6.321198141574859, -6.2529938310384745, -6.3412927150726315, -6.412550921738148, -6.298656038939953, -6.318057891726493, -6.4235203653573985, -6.364997126162052, -6.484615306556225, -6.330847066640853, -6.325575077533721, -6.276387494802474, -6.405563203990459, -6.348992063105106, -6.484441968798637, -6.268998263776302, -6.411305411159992, -6.3263201147317885, -6.404533262550831, -6.384383851289749, -6.336517417430877, -6.4024134993553155, -6.375175519287586, -6.310959237813949, -6.454992198944091, -6.498858627676963, -6.530739538371563, -6.485546918213367, -6.389007872343063, -6.482643038034439, -6.353382235765457, -6.484615936875343, -6.466510020196438, -6.462400339543819, -6.357440230250358, -6.555765728652477, -6.3309554815292355, -6.392577369511127, -6.407408778369426, -6.443030002713203, -6.275664518773556, -6.313309067487716, -6.285914768278598, -6.536881367862224, -6.415335671603679, -6.182111924886703, -6.471837477385997, -6.300981286168098, -6.203382043540477, -6.133745017647743, -6.100117492675781, -6.344625842571258, -6.257586966454983, -6.062748393416404, -6.11374310106039, -6.19894396662712, -6.158205181360245, -6.229252861440181, -6.2036379531025885, -6.240343956649303, -6.174405643343925, -6.209894500672817, -6.337584547698498, -6.284086842834949, -6.2134482398629185, -6.124854996800423];[0.00734719994943589, 0.020992999896407127, 0.03852760000154376, 0.05274670000653714, 0.07116759999189526, 0.08520749991293997, 0.10389249993022531, 0.11846559995319694, 0.13652549998369068, 0.1506966999731958, 0.17006699997000396, 0.1847303999820724, 0.20261739997658879, 0.2197954999282956, 0.23588629998266697, 0.2532425000099465, 0.26912650000303984, 0.2850726000033319, 0.3024138999171555, 0.3205123000079766, 0.3366499999538064, 0.35319819999858737, 0.3711651999037713, 0.3835048999171704, 0.40174859995022416, 0.41814829991199076, 0.43517419998534024, 0.4517530999146402, 0.47111119993496686, 0.4865494999103248, 0.5046138999750838, 0.5176536999642849, 0.5376006999285892, 0.5514383999397978, 0.5697957999072969, 0.585943799931556, 0.6023921999149024, 0.6191060999408364, 0.6358296999242157, 0.6531792999012396, 0.6708429999416694, 0.6863662999821827, 0.7045988999307156, 0.7193708999548107, 0.7368546999059618, 0.7519070999696851, 0.7695803999667987, 0.7860775999724865, 0.8044204999459907, 0.819504699902609, 0.8376968000084162, 0.853064899914898, 0.8713561999611557, 0.886077499948442, 0.9059676999459043, 0.9193484999705106, 0.9361283999169245, 0.9522423999151215, 0.9702406999422237, 0.9851572999032214, 1.0040409999201074, 1.0195057999808341, 1.037383999908343, 1.0522153999190778, 1.0720213999738917, 1.086542599950917, 1.1032598000019789, 1.1199440999189392, 1.1363356999354437, 1.151778099942021, 1.1700397999957204, 1.1867124999407679, 1.2045003999955952, 1.2196021999698132, 1.2380734999896958, 1.2522857999429107, 1.2711824999423698, 1.2871828000061214, 1.3043134999461472, 1.3185526999877766, 1.3360816999338567, 1.3523832999635488, 1.3704094999702647, 1.3866962000029162, 1.40392279997468, 1.4193300999468192, 1.4375235999468714, 1.4517620999831706, 1.4698231999063864, 1.484909199993126, 1.503589199972339, 1.5191612999187782, 1.537915900000371, 1.5526374999899417, 1.570640099933371, 1.5853304999182, 1.6040551000041887, 1.6167497999267653, 1.635550200007856, 1.6513490999350324, 1.669751999899745, 1.6857584998942912, 1.704858599929139, 1.8186941999010742, 1.8349730999907479, 1.852398799965158, 1.871027599903755, 1.8857639000052586, 1.9037851999746636, 1.9198043999494985, 1.936589099932462, 1.9522366999881342, 1.970295300008729, 1.9846733999438584, 2.001555999973789, 2.0198495999211445, 2.0360473999753594, 2.05404489999637, 2.0706513999029994, 2.085773899918422, 2.1036684999708086, 2.1188093000091612, 2.1364453999558464, 2.1518490999005735, 2.168907599989325, 2.185917599941604, 2.2039530999027193, 2.217709799995646, 2.234371199971065, 2.251057499903254, 2.269554700003937, 2.285377799998969, 2.303351099952124, 2.3184372999239713, 2.3377413999987766, 2.352514899917878, 2.3700691999401897, 2.384956399910152, 2.4035318999085575, 2.418161299894564, 2.4354727999307215, 2.450918299960904, 2.4682605999987572, 2.4833899999503046, 2.503967099939473, 2.5189365999540314, 2.5373080999124795, 2.55224389990326, 2.5706926999846473, 2.584268799982965, 2.60340499994345, 2.6191076999530196, 2.637485299957916, 2.6515037999488413, 2.671297099906951, 2.6843791999854147, 2.701929399976507, 2.818812799989246, 2.836876399931498, 2.8524455999722704, 2.8695192999439314, 2.8863646999234334, 2.9031121999723837, 2.9196136998943985, 2.9384260999504477, 2.9523085999535397, 2.970183899975382, 2.9851842999923974, 3.003966399934143, 3.0187740999972448, 3.037143599940464, 3.05076209991239, 3.068558899918571, 3.0845372999319807, 3.1024122999515384, 3.1183321999851614, 3.135472199996002, 3.150548000005074, 3.1681481999112293, 3.184230199898593, 3.201574399950914, 3.218952199909836, 3.235019899904728, 3.2510308999335393, 3.2685075999470428, 3.2848933999193832, 3.301574399927631, 3.317938799969852, 3.3357370999874547, 3.3519418999785557, 3.368989699985832, 3.385059699998237, 3.402237999951467, 3.4187749999109656, 3.4355952999321744, 3.4503775999182835, 3.4678799000103027, 3.4842577999224886, 3.501713000005111, 3.517965200007893, 3.535872499924153, 3.5519044999964535, 3.5694946999428794, 3.5850619999691844, 3.6026797000085935, 3.6185795000055805, 3.6355223999125883, 3.651200699969195, 3.6679609999991953, 3.683504299959168, 3.70121929992456, 3.7184162999037653, 3.7351916999323294, 3.750840499997139, 3.769596299971454, 3.784518799977377, 3.8015808999771252, 3.818078299984336, 3.8351874999934807, 3.8529338999651372, 3.868419599952176, 3.883483099984005, 3.9002540999790654, 3.9164967999095097, 3.9344579000025988, 3.9506297999760136, 3.9688918999163434, 3.9852343999082223, 4.002184199984185, 4.017919500009157, 4.035805999999866, 4.051930599962361, 4.0702540999045596, 4.085229999967851, 4.1027899999171495, 4.119468999910168, 4.137080099899322, 4.151961199939251, 4.169237199937925, 4.1845928999828175, 4.202596999937668, 4.218392099952325, 4.235657499986701, 4.250713099958375, 4.268867100006901, 4.285375999985263, 4.302032799925655, 4.317508399952203, 4.336550100008026, 4.350914599956013, 4.369227899936959, 4.385495799942873, 4.402417299919762, 4.418477899977006, 4.435447699972428, 4.4517352998955175, 4.470273399958387, 4.484978399937972, 4.501626699930057, 4.518259599921294, 4.536658399971202, 4.551586299901828, 4.569362599984743, 4.585334499948658, 4.60231119999662, 4.619374700007029, 4.6348308000015095, 4.651624299935065, 4.669004499912262, 4.684251999948174, 4.702203699969687, 4.716464699944481, 4.734726199996658, 4.751975299906917, 4.768234199960716, 4.784547699964605, 4.803886999958195, 4.817881800001487, 4.835469999932684, 4.850302699953318, 4.869362699915655, 4.884485099930316, 4.902308099903166, 4.917945299996063, 4.93507539993152, 4.951500299968757, 4.968448099913076, 4.984666500007734, 5.002847699914128, 5.018491499940865, 5.035934999934398, 5.051683199941181, 5.069254399975762, 5.084010099992156, 5.102087799925357, 5.116322199930437, 5.135458700009622, 5.1513640999328345, 5.168986300006509, 5.18450499989558, 5.2012430999893695, 5.218047800008208, 5.235668099950999, 5.250503299990669, 5.268874599947594, 5.285294199944474, 5.302958199987188, 5.3189347999868914, 5.334754599956796, 5.350958799943328, 5.369384899968281, 5.384928499930538, 5.400567899923772, 5.417316799983382, 5.435556699987501, 5.450970100006089, 5.469159199972637, 5.4844032999826595, 5.502068899921142, 5.518043899908662, 5.535604099975899, 5.551487299962901, 5.568698399933055, 5.584872999927029, 5.60130549990572, 5.618629299919121, 5.635265999939293, 5.651107899961062, 5.668872499954887, 5.683895199908875, 5.702363499905914, 5.717651599901728, 5.734046999947168, 5.751417199964635, 5.767486399970949, 5.782811899902299, 5.802052199956961, 5.815793499932624, 5.833940999931656, 5.850013499963097, 5.869221800006926, 5.883566699922085, 5.901915499940515, 5.9183289000066, 5.935856799944304, 5.950733499950729, 5.969331000000238, 5.984779499936849, 6.001994999940507, 6.018242499907501, 6.035398899926804, 6.050005599972792, 6.068832099903375, 6.085227599949576, 6.101116799982265, 6.117449099896476, 6.1352753000101075, 6.150038699968718, 6.16750839992892, 6.183648000005633, 6.201308399904519, 6.218693099915981, 6.235894099925645, 6.249801900004968, 6.2694394999416545, 6.286669599940069, 6.30187039996963, 6.316884099971503, 6.335665699909441, 6.351827199920081, 6.370395299978554, 6.384607599931769, 6.40326739999, 6.418444399954751, 6.4355887999990955, 6.451224399963394, 6.4689327999949455, 6.483824900002219, 6.503664599964395, 6.517623499967158, 6.534678099909797, 6.551547699957155, 6.569475499913096, 6.5831618999363855, 6.601687999907881, 6.618993999902159, 6.637204699916765, 6.652408199966885, 6.671274699969217, 6.68519180000294, 6.702702099923044, 6.718739799922332, 6.735668399953283, 6.751578699913807, 6.768717399914749, 6.785113399964757, 6.802020299946889, 6.817815899965353, 6.835810999968089, 6.851532600005157, 6.8679402999114245, 6.883929000003263, 6.902863699942827, 6.918074699933641, 6.935201499960385, 6.951376499957405, 6.968856499996036, 6.983976099989377, 7.000659599900246, 7.017709399922751, 7.03558589995373, 7.051900199963711, 7.069316299981438, 7.08483989990782, 7.101768899941817, 7.117160099907778, 7.135891699930653, 7.1527975999051705, 7.1681081999558955, 7.184740199940279, 7.201429999899119, 7.217296399991028, 7.235979499993846, 7.252096199896187, 7.269697599927895, 7.285068099969067, 7.302173399948515, 7.3184672999195755, 7.334843999939039, 7.34982439992018, 7.366579299909063, 7.382600099896081, 7.3995737999212, 7.415859999950044, 7.434394499985501, 7.449344799970277, 7.467672499944456, 7.484239999903366, 7.502303699962795, 7.518375999992713, 7.535624499898404, 7.550716299912892, 7.568508800002746, 7.584317600005306, 7.6022555999225006, 7.616490499931388, 7.634583099978045, 7.651202899985947, 7.669193999958225, 7.686807699967176, 7.704383299918845, 7.719565899926238, 7.73675129993353, 7.752578199957497, 7.7692614999832585, 7.786650599911809, 7.803904699976556, 7.819555399939418, 7.837551299948245, 7.852144200005569, 7.87118269992061, 7.885509599931538, 7.904216700000688, 7.919699699967168, 7.936291899997741, 7.9523279999848455, 7.970068199909292, 7.985135199967772, 8.002075899974443, 8.01734179991763, 8.03516019997187, 8.053624099935405, 8.071700499975123, 8.085605999920517, 8.102944699930958, 8.117178299929947, 8.136432399973273, 8.151149999932386, 8.170666399993934, 8.183355099987239, 8.204815599950962, 8.216889799921773, 8.233440999989398, 8.250758099951781, 8.270532299997285, 8.285440899897367, 8.303513799910434, 8.317246299935505, 8.336223399965093, 8.353038299945183, 8.368582899915054, 8.38597820000723, 8.402821799973026, 8.418139799963683, 8.434305100003257, 8.450184099958278, 8.468798699905165, 8.48397219995968, 8.50224909989629, 8.518496299977414, 8.535118700005114, 8.551600000006147, 8.570541799999774, 8.585331999929622, 8.602834699908271, 8.617195899947546, 8.638019099947996, 8.651578999939375, 8.671988099929877, 8.685723899980076, 8.701691899914294, 8.71815859992057, 8.735723599907942, 8.752968199900351, 8.769902399973944, 8.784253199934028, 8.801791599951684, 8.817784499959089, 8.836982799926773, 8.853159899939783, 8.870543299941346, 8.88700709992554, 8.904803199926391, 8.918467899900861, 8.93802689993754, 8.951542599941604, 8.969624199904501, 8.983886700007133, 8.999895599903539, 9.01729859993793, 9.035970899974927, 9.05099459993653, 9.067446999950334, 9.084104499896057, 9.101576299988665, 9.117345699924044, 9.136503899935633, 9.152792099979706, 9.170103899901733, 9.185485199908726, 9.203000799985602, 9.217500099912286, 9.236776200006716, 9.25083709997125, 9.26970489998348, 9.283966799965128, 9.302744699991308, 9.316849699942395, 9.337613499956205, 9.352542999899015, 9.369990499923006, 9.38431499991566, 9.399424699950032, 9.417148099979386, 9.434406799962744, 9.450656799948774, 9.468661599908955, 9.483914299984463, 9.50219799997285, 9.518565299920738, 9.534766500000842, 9.550931499921717, 9.567773599992506, 9.582959099905565, 9.601157699944451, 9.617818799917586, 9.63591909990646, 9.651520499959588, 9.671813299995847, 9.684864499955438, 9.702442199923098, 9.720019300002605, 9.737029899959452, 9.752044699969701, 9.771044799941592, 9.785320399911143, 9.803871299955063, 9.818995899986476, 9.834952999954112, 9.850533799966797, 9.868702899897471, 9.88394609990064, 9.90252329991199, 9.919543399941176, 9.937089899904095, 9.952618599985726, 9.969351699925028, 9.985801599919796, 10.004157399991527, 10.018576700007543, 10.038291999953799, 10.0520520999562, 10.068585300003178, 10.083420799928717, 10.103148499969393, 10.120785099919885]
S08;1;0;0;1;False;1000;False;;8;-154.94431905044434;eye;L;nan;nan;nan;nan;0.002320299972780049;0.0024145999923348427;1685696468.427712;1685696468.447714;1685696469.2019687;1685696469.7029445;1685696470.66902;1685696470.6711707;[];[];[]
S08;1;0;0;1;False;1000;False;;8;-107.91940243060694;eye;L;nan;nan;nan;nan;0.0019513999577611685;0.0020668000215664506;1685696471.6075177;1685696471.614544;1685696472.3684819;1685696472.8697581;1685696473.8356738;1685696473.837757;[];[];[]
S08;1;0;0;1;False;1000;True;;8;-77.28822355300773;eye;L;0.9213618636131287;-5.477450448274612;-80.45;5.55;2.0489919999381527;2.0491365001071244;1685696474.4022634;1685696474.4137611;1685696475.1682384;1685696475.669173;1685696476.6521964;1685696478.7012289;[-0.2580810487270355, -0.29099342226982117, -0.1929624080657959, -0.23046758770942688, -0.33180320262908936, -0.35004758834838867, -0.4068520665168762, -0.33485808968544006, -0.20771589875221252, -0.133901447057724, -0.3284663259983063, -0.24860551953315735, -0.26802486181259155, -0.2362755537033081, -0.2092532515525818, -0.19860050082206726, -0.19869902729988098, -0.031219303607940674, -0.1379619836807251, -0.1608937382698059, -0.30424126982688904, -0.2514497637748718, -0.2014538049697876, -0.1763850450515747, -0.131920725107193, -0.21026059985160828, -0.18315619230270386, -0.18592569231987, -0.049388378858566284, -0.13000059127807617, -0.11143231391906738, -0.049176037311553955, 0.0817480981349945, -0.08836466073989868, -0.002802908420562744, -0.02596229314804077, -0.04387259483337402, -0.0009133517742156982, 0.030421465635299683, 0.01742616295814514, -0.043022096157073975, 0.025324702262878418, -0.00908595323562622, 0.0693337619304657, 0.21798303723335266, -0.003028273582458496, 0.12502726912498474, -0.01648619771003723, 0.04033017158508301, 0.663719654083252, 0.9920721650123596, 0.7672868371009827, 0.957373857498169, 0.8883373737335205, 0.9255713224411011, 0.979741632938385, 0.8481147885322571, 0.8394082188606262, 0.8884698748588562, 0.9624213576316833, 0.8137562274932861, 0.8379518389701843, 0.8323754668235779, 0.8372825384140015, 0.8122590780258179, 0.6753831505775452, 0.7853081226348877, 0.8614713549613953, 0.8003804087638855, 0.7874519228935242, 0.6609280705451965, 0.8318692445755005, 0.6627468466758728, 0.6960000991821289, 0.7618565559387207, 0.6680842638015747, 0.8032206892967224, 0.7248853445053101, 0.6766413450241089, 0.7765403985977173, 0.6392533779144287, 0.7774984836578369, 0.8012252449989319, 0.745116114616394, 0.7802243828773499, 0.6416304707527161, 0.6398977637290955, 0.9103348255157471, 0.6930986642837524, 0.734941840171814, 0.8834336996078491, 0.8650556802749634, 0.853947103023529, 0.8226734399795532, 0.7375522255897522, 0.7698734402656555, 0.7274526953697205, 0.694463312625885, 0.7204844951629639, 0.804178774356842, 0.8931187391281128, 0.7584885358810425, 0.8793522119522095, 0.734844446182251, 0.8989759683609009, 0.8272067904472351, 0.7454354763031006, 0.8542189002037048, 0.6762166619300842, 0.8229644894599915, 0.7329384684562683, 0.8240199685096741, 0.8678721785545349, 0.6999751329421997, 0.8814473152160645, 0.9354024529457092, 0.920386791229248, 0.8490264415740967, 0.8142330050468445, 0.7274560928344727, 0.7821303606033325, 0.8522336483001709, 0.9213618636131287];[-0.6045012474060059, -0.7094121918082237, -0.6025749921798705, -0.6861609801650047, -0.5723984643816947, -0.5076161563396453, -0.6008390933275223, -0.6022415533661842, -0.6003726571798325, -0.6602290213108062, -0.592566154897213, -0.3807521425187588, -0.6178173691034317, -0.7364024564623832, -0.6506948143243789, -0.7279297068715095, -0.6420260354876518, -0.5393369659781455, -0.711368702352047, -0.43531855344772336, -0.4535196483135223, -0.4483396857976913, -0.47847461253404616, -0.45111813247203825, -0.694460391998291, -0.7434532061219215, -0.7618175536394118, -0.7413908019661903, -0.5767029136419296, -0.4651824429631233, -0.4410790398716926, -0.6158785074949265, -0.5188679829239845, -0.47095427513122556, -0.618447057902813, -0.7999008044600486, -0.606564912199974, -0.5315726950764655, -0.57687499076128, -0.6331971555948257, -0.8912290021777153, -0.818188253045082, -0.7929880946874618, -0.6428593173623085, -0.7190453588962554, -0.7604340031743049, -0.6915785729885101, -0.779518175125122, -0.8633027136325836, -3.238159207999706, -4.954364369809627, -4.4763996854424475, -4.770914402604102, -4.805603384971619, -4.578823390603065, -4.776522351801395, -4.8558309942483895, -4.892562840878963, -4.901365247368812, -4.899972872436046, -5.049049647152423, -4.95098081678152, -4.715674495697021, -4.9212530761957165, -5.055639633536338, -4.9339987590909, -5.093167573213577, -4.9810867488384245, -5.021105709671974, -5.1385953024029725, -4.932525072991847, -5.112516479194164, -4.933882150053978, -4.8982987448573105, -4.932676349580287, -5.172547441720962, -5.227082021534443, -4.975764334201813, -5.124142715334892, -5.192364044487476, -5.197373190522193, -5.098116208612918, -5.190596629679202, -5.1321773931384085, -5.149043472111225, -5.226110699772835, -5.210795205831527, -5.203973892331123, -4.989899870753288, -5.346837611496448, -5.239770975708961, -5.3256979689002035, -5.348493459820747, -5.074220180511475, -5.323505719006061, -5.329454040527343, -5.137380677461624, -5.157159461081028, -5.113835106790066, -5.399104933440685, -5.489037604629993, -5.053920122981071, -5.322709625959396, -5.3840894713997836, -5.135852783918381, -5.360874187946319, -5.418257810175419, -5.082010294497013, -5.354239448904991, -5.433742859959602, -5.302419653534889, -5.39246452152729, -5.499396899342536, -5.318238772451878, -5.411039395630359, -5.453425204753875, -5.419519709050655, -5.468932315707207, -5.457868954539299, -5.512505646049976, -5.446368782222271, -5.469751730561256, -5.477450448274612];[0.005275700008496642, 0.01830080000218004, 0.03629519999958575, 0.05078950000461191, 0.067577000008896, 0.08660250005777925, 0.10182170011103153, 0.11809120001271367, 0.13645910006016493, 0.15322520001791418, 0.16979420010466129, 0.18747150001581758, 0.20006470009684563, 0.2203668000875041, 0.23515690001659095, 0.2521116000134498, 0.2670506000285968, 0.2861721001099795, 0.3025842000497505, 0.3198530001100153, 0.334369600052014, 0.3534157000249252, 0.3682578000007197, 0.3853228000225499, 0.4010531000094488, 0.4187037000665441, 0.43553240003529936, 0.4525432001100853, 0.4675541000906378, 0.4849574000108987, 0.5015186000382528, 0.517896700068377, 0.534216900006868, 0.5507984000723809, 0.5670866000000387, 0.5855368000920862, 0.6018721000291407, 0.6184756000293419, 0.6349796000868082, 0.6515533000929281, 0.6682268000440672, 0.6842142000095919, 0.7011196000967175, 0.7186075000790879, 0.7353107000235468, 0.7524467000039294, 0.7679295000853017, 0.7850751000223681, 0.8014227000530809, 0.8185108000179753, 0.8346844000043347, 0.8521698000840843, 0.8676741000963375, 0.8863615000154823, 0.9013937000418082, 0.9193384000100195, 0.9367131000617519, 0.9517221000278369, 0.967857800074853, 0.9857965999981388, 1.0002713000867516, 1.0185209000483155, 1.0346829000627622, 1.0527618000051007, 1.0705921000335366, 1.0868570000166073, 1.100618700031191, 1.1197455000365153, 1.1336428000358865, 1.1541633000597358, 1.1677143000997603, 1.1850009000627324, 1.2013540000189096, 1.2176997000351548, 1.2339570000767708, 1.2521574000129476, 1.2682316000573337, 1.2860436000628397, 1.3020596000133082, 1.3193484001094475, 1.3342661000788212, 1.3518503000959754, 1.3687903000973165, 1.3866437000688165, 1.4014239000389352, 1.4187262000050396, 1.4342705000890419, 1.4517838000319898, 1.4685339001007378, 1.4855456000659615, 1.5007781001040712, 1.519663600018248, 1.5357049000449479, 1.5511897000251338, 1.5674965000944212, 1.5847322000190616, 1.6017430000938475, 1.61937960004434, 1.6344544000457972, 1.653097900096327, 1.6677396000595763, 1.6860605000983924, 1.701084200059995, 1.7183765000663698, 1.73347050009761, 1.7505409000441432, 1.7667657000711188, 1.7853893000865355, 1.801163800060749, 1.819439300103113, 1.8347447999985889, 1.8519292999990284, 1.8684568000026047, 1.8853413000470027, 1.901317400042899, 1.9200811000773683, 1.9342396000865847, 1.951158900046721, 1.967333700042218, 1.9843331000301987, 2.0010062000947073, 2.0178812000667676, 2.034224300063215]
S08;2;0;0;1;False;1000;False;;8;152.42146387969802;eye;L;nan;nan;nan;nan;0.0021056000841781497;0.002233400009572506;1685696479.4074333;1685696479.412354;1685696480.1687138;1685696480.6697376;1685696481.6358993;1685696481.6384764;[];[];[]
S08;2;0;0;1;False;1000;True;;8;4.466609982041679;eye;L;7.1053626537323;-0.7801951378583908;-6.27;7.15;2.3309810999780893;2.3311769000720233;1685696482.2023582;1685696482.2130725;1685696482.9689395;1685696483.4685066;1685696484.4524002;1685696486.783039;[6.821099042892456, 6.755172371864319, 6.599885582923889, 6.600933134555817, 6.7644259333610535, 6.547367572784424, 6.774542450904846, 6.638079881668091, 6.524314641952515, 1.6160969734191895, 1.3310474157333374, 1.2049901485443115, 0.9811244010925293, 1.0557406544685364, 0.9441339373588562, 1.0723791718482971, 1.1526907086372375, 1.0346491932868958, 1.036379635334015, 1.0624302625656128, 1.0795093178749084, 1.0450375080108643, 0.8192227482795715, 0.827842116355896, 1.033179223537445, 0.9734699130058289, 0.8287990689277649, 0.9679275155067444, 0.9464238286018372, 0.9762320518493652, 0.9713385701179504, 0.917107105255127, 0.8292826414108276, 0.8675154447555542, 0.992049515247345, 0.8843294978141785, 0.9339596629142761, 0.9208714962005615, 0.8066713809967041, 0.840111494064331, 0.9930234551429749, 1.0060946345329285, 0.9813486337661743, 1.0929055213928223, 0.9122430682182312, 1.1077886819839478, 1.0213775634765625, 1.0320388078689575, 0.9655798673629761, 1.017379879951477, 0.9365236163139343, 0.8711167573928833, 1.0278621912002563, 0.9251726865768433, 0.8633863925933838, 0.9463105797767639, 0.9863417744636536, 0.954774796962738, 0.9428191184997559, 0.8578643798828125, 0.9279167056083679, 0.984638512134552, 1.0771718621253967, 1.0676997303962708, 1.016148865222931, 1.0195395350456238, 0.9524645209312439, 1.1341665983200073, 2.9701995849609375, 3.8912001848220825, 3.738976776599884, 3.868457555770874, 4.014384329319, 4.139655649662018, 4.0456477999687195, 4.110968589782715, 4.206470191478729, 4.095673203468323, 4.183566749095917, 4.186424016952515, 4.234429061412811, 4.223173260688782, 4.095872521400452, 4.208160996437073, 4.230381548404694, 4.117188215255737, 4.1898022294044495, 4.209377288818359, 4.13392186164856, 4.320144832134247, 4.173030078411102, 4.139006733894348, 4.354471683502197, 4.358208894729614, 4.278644800186157, 7.429162561893463, 7.011009395122528, 7.203570902347565, 7.225545704364777, 7.365993499755859, 7.312554776668549, 7.325589716434479, 7.114363670349121, 7.0102710127830505, 7.071612238883972, 7.011960685253143, 7.115472376346588, 6.964089274406433, 6.981383502483368, 7.0496238470077515, 7.122754275798798, 7.102521240711212, 7.021592497825623, 7.063055157661438, 6.958295464515686, 6.911366283893585, 7.024826884269714, 6.9284170269966125, 7.042007863521576, 7.088795483112335, 7.005580246448517, 7.110683083534241, 7.062076687812805, 7.191600501537323, 6.973086893558502, 7.1005858182907104, 7.019426047801971, 6.90778648853302, 7.013059198856354, 7.1889402866363525, 7.038149476051331, 6.943091809749603, 6.988828480243683, 7.007618725299835, 7.068974673748016, 7.100706994533539, 7.177257537841797, 7.4149996638298035, 7.255566835403442, 7.1053626537323];[1.1766942277550696, 1.038158594816923, 1.0735989175736904, 1.2848336666822433, 1.346199645102024, 1.317473166435957, 1.2679222047328949, 1.2366993471980094, 1.0436893299221992, 1.788724637031555, 1.4742423556745052, 1.5697297140955924, 1.4503463275730608, 1.3539368122816084, 1.4192558370530604, 1.4445146150887012, 1.3879507228732109, 1.2960076488554477, 1.3902847945690153, 1.3541851580142974, 1.3733134523034094, 1.3105636082589625, 1.4576447926461695, 1.3376997917890547, 1.4713911071419714, 1.3543124824762343, 1.4014269456267356, 1.3856153905391693, 1.3018570102751255, 1.2569010749459266, 1.3858898945152758, 1.4551578685641289, 1.359471959620714, 1.5128052793443203, 1.406942868232727, 1.3610843159258366, 1.2335096172988413, 1.2994810223579405, 1.2673259228467941, 1.2636344589293003, 1.1039724200963974, 1.1632870249450207, 1.0571598798036574, 1.126672102510929, 1.138444572687149, 1.1948899649083613, 1.196362705528736, 1.1453654766082764, 1.0727356955409049, 1.2442480489611625, 0.9343173019587993, 0.9509703330695628, 0.8766191504895686, 1.1021353550255297, 1.10140418484807, 1.010523198544979, 0.9530541680753231, 0.9082416303455829, 1.04060927554965, 0.8612793892621994, 1.110816740244627, 1.0976559922099112, 0.8407672293484211, 0.8264775797724723, 1.032680806517601, 0.9541846454143523, 0.8823437087237834, 0.9247600883245467, 1.1429759368300436, 1.3756459482014178, 1.363727243989706, 1.2853007331490516, 1.063220713287592, 1.2085700958967207, 1.2464147709310054, 1.1785429537296295, 1.0928945615887642, 1.0317948929965495, 1.0947937130928038, 1.1670096896588802, 1.0449083670973778, 0.9648978643119335, 0.9826340988278388, 1.0543272256851195, 0.7425568923354149, 0.7584699288010597, 0.9183374516665935, 0.8916015207767486, 0.8634164862334728, 0.951143355667591, 0.819731904566288, 0.9023935295641422, 0.8654634475708007, 0.9794642239809036, 0.8013158708810806, -0.16449847742915152, -0.06603947952389716, -0.23815189674496648, -0.29222067072987556, -0.3489203967154026, -0.33004769682884216, -0.2586760327219963, -0.2666243568062782, -0.29390204697847366, -0.16295104399323462, -0.19188111573457717, -0.16047105342149734, -0.2712055161595344, -0.3785318434238434, -0.4805332347750663, -0.2919846162199974, -0.30464394539594647, -0.3847883909940719, -0.37703357487916944, -0.38371684849262233, -0.4918758273124694, -0.5740146026015281, -0.48281940221786496, -0.5345440194010734, -0.5493539974093437, -0.5862169504165649, -0.5585364863276481, -0.5694592863321304, -0.5335821524262427, -0.6018847927451133, -0.5419092983007431, -0.70341407507658, -0.7699316516518593, -0.6346607565879822, -0.6864364296197891, -0.6655463933944702, -0.7417551264166832, -0.7982222646474838, -0.7295981615781784, -0.6770579114556312, -0.9546933129429817, -0.8526427567005157, -0.7432376369833946, -0.8938839063048362, -0.7801951378583908];[0.006111699971370399, 0.017692800029180944, 0.035061600035987794, 0.05280689999926835, 0.06796340004075319, 0.0877547999843955, 0.10037830006331205, 0.11750390008091927, 0.13595060002990067, 0.15089400007855147, 0.16593899996951222, 0.18419140006881207, 0.19874240003991872, 0.21717650000937283, 0.23243590001948178, 0.25158709997776896, 0.2687741999980062, 0.2848921000258997, 0.3010173999937251, 0.3179972000652924, 0.3333902000449598, 0.35206260008271784, 0.36808000004384667, 0.3845735000213608, 0.4020905999932438, 0.4167909000534564, 0.4341403000289574, 0.452272400027141, 0.4673598000081256, 0.4856995000736788, 0.5003058000002056, 0.517711800057441, 0.53357029997278, 0.5520156000275165, 0.5678029999835417, 0.5849487000377849, 0.6012918000342324, 0.6197012000484392, 0.6352828000672162, 0.651467900024727, 0.6684343999950215, 0.6849214000394568, 0.7021103000734001, 0.71822450007312, 0.7351297000423074, 0.7521945000626147, 0.76752310001757, 0.7847676000092179, 0.8006487999809906, 0.8185281000332907, 0.8344821999780834, 0.8518410000251606, 0.8674814000260085, 0.8847991999937221, 0.9005857000593096, 0.917720100027509, 0.932570300064981, 0.9504522000206634, 0.9680107000749558, 0.9835508000105619, 1.0005367000121623, 1.0177430000621825, 1.0353908999823034, 1.0517224000068381, 1.0684866000665352, 1.084530199994333, 1.1021423999918625, 1.1188844999996945, 1.136195500032045, 1.1522171000251547, 1.168141599977389, 1.1851570999715477, 1.2002762000774965, 1.2181023000739515, 1.2333696000277996, 1.2530257999897003, 1.2674597000004724, 1.2852795000653714, 1.3015854000113904, 1.317925399984233, 1.3342584000201896, 1.3517296999925748, 1.3680990000721067, 1.385024700080976, 1.4008592000463977, 1.417729299981147, 1.4356804999988526, 1.4513545000227168, 1.468764299992472, 1.484743700013496, 1.49943029996939, 1.5188449000706896, 1.5342516000382602, 1.5509144000243396, 1.5686836000531912, 1.583973600063473, 1.6011609999695793, 1.6183869000524282, 1.6344567000633106, 1.6534789999714121, 1.6678679999895394, 1.6838689000578597, 1.7012241000775248, 1.7188968000700697, 1.7335525000235066, 1.7513177000219002, 1.7680921000428498, 1.7856048999819905, 1.800615500076674, 1.8190639000386, 1.8333348999731243, 1.8521922000218183, 1.8677027000812814, 1.885439799982123, 1.9003234000410885, 1.918819300015457, 1.9344160000327975, 1.9520576000213623, 1.9680738999741152, 1.9849730000132695, 2.001254400005564, 2.0190694000339136, 2.0336765000829473, 2.052178999991156, 2.06781460007187, 2.0850363000063226, 2.1015193000203, 2.118649800075218, 2.1353540000272915, 2.1515595000237226, 2.1672138000139967, 2.1854640999808908, 2.2004021999891847, 2.219544699997641, 2.235369800007902, 2.2519373000832275, 2.2683479000115767, 2.2848809000570327, 2.301228199969046, 2.3184300999855623]
S08;3;0;0;1;False;3000;True;;8;99.88369676023655;eye;L;-0.5215782225131989;6.147077527642249;94.85;6.17;1.3671896000159904;1.3672756999731064;1685696487.633457;1685696487.645501;1685696488.401821;1685696488.9021006;1685696491.8998716;1685696493.267086;[-0.048759281635284424, 0.1663438379764557, -0.03377872705459595, -0.03376287221908569, 0.0010917186737060547, 0.010604619979858398, -0.15825504064559937, -0.013012290000915527, 0.13212797045707703, 0.12045654654502869, 0.1319139301776886, 0.10363230109214783, 0.10392844676971436, 0.18842622637748718, 0.09382042288780212, 0.10253322124481201, 0.03877526521682739, 0.04002383351325989, 0.1521362066268921, 0.19162946939468384, 0.07745823264122009, 0.09686172008514404, 0.16939306259155273, -0.0014665722846984863, -0.038091808557510376, 0.06755009293556213, 0.04259401559829712, 0.013879209756851196, 0.03913766145706177, 0.0607987642288208, -0.4839971661567688, -0.2356204092502594, -0.6138273179531097, -0.5983297824859619, -0.5054113864898682, -0.4637131690979004, -0.5066412687301636, -0.461065411567688, -0.2756538689136505, -0.4834343194961548, -0.3474977910518646, -0.4072076678276062, -0.33630314469337463, -0.4334593117237091, -0.5700934529304504, -0.5397829711437225, -0.47936075925827026, -0.5245289206504822, -0.513853520154953, -0.5668035745620728, -0.5205669105052948, -0.5373441576957703, -0.5249060392379761, -0.46839600801467896, -0.5187356770038605, -0.32826361060142517, -0.3009389340877533, -0.20713719725608826, -0.36683276295661926, -0.4093191921710968, -0.4733778238296509, -0.3905799090862274, -0.4662833511829376, -0.4939919412136078, -0.44079557061195374, -0.49562782049179077, -0.45577046275138855, -0.5279699862003326, -0.6682167649269104, -0.5114968121051788, -0.4746139347553253, -0.48450395464897156, -0.38581156730651855, -0.38882341980934143, -0.32950538396835327, -0.3142586946487427, -0.40574392676353455, -0.5305673480033875, -0.48275935649871826, -0.439410537481308, -0.5029487907886505, -0.5215782225131989];[1.097090595960617, 1.015141861885786, 1.0422169044613838, 1.0139760866761207, 1.0315427653491496, 0.9515470750629901, 0.9691411726176739, 0.8800260253250598, 0.8600285209715366, 0.9406999133527278, 0.8524218298494816, 0.9790617652237414, 0.9787150897085666, 1.0130586571991442, 0.9541159406304359, 0.9096652060747146, 0.9587071850895881, 0.9075236968696117, 0.7731948137283324, 0.831126183271408, 0.9008895881474017, 0.8197763420641422, 0.836983423680067, 0.7502991020679474, 0.7736146062612533, 0.8511756889522075, 0.8495671145617961, 0.8170725882053375, 0.8623868599534034, 1.200925900787115, 5.528743296861649, 6.523171769455075, 6.478603165224194, 6.667767132818699, 6.683748401328921, 6.559634627401828, 6.645173974335193, 6.70170556269586, 6.619775895774364, 6.5674247413873665, 6.686787169799208, 6.531901689246297, 6.62828536145389, 6.584570997208356, 6.5558574400842184, 6.612793378159403, 6.602227653935551, 6.444363757967949, 6.5805780831724405, 6.482438657060265, 6.353668715804815, 6.6535476062446826, 6.510765198245644, 6.516267096251249, 6.453972027450799, 6.902606545016169, 6.341638917848467, 6.305033292621374, 6.323223672062158, 6.485858138278126, 6.281180756539106, 6.188605157285928, 6.302107351273298, 6.245145885273814, 6.333962734043598, 6.299197955802082, 6.280903258547187, 6.832502925395965, 6.5355977229774, 6.408087159320711, 6.511844304576516, 6.434933238476514, 6.377741390839219, 6.196437817811965, 6.2878552056849, 6.18631883226335, 6.407309503108262, 6.619654874503612, 6.496111224219202, 6.541957012563944, 6.3265259139239785, 6.147077527642249];[0.005780100007541478, 0.019928800058551133, 0.03856290003750473, 0.053670700057409704, 0.07188699999824166, 0.08657010004390031, 0.10470570006873459, 0.1206952000502497, 0.13784450001548976, 0.1531998000573367, 0.1706700000213459, 0.1867273000534624, 0.20127139997202903, 0.21889500005636364, 0.23750070005189627, 0.2543306000297889, 0.27073360001668334, 0.2873521000146866, 0.30367649998515844, 0.3192772000329569, 0.3378652000101283, 0.3536650000605732, 0.3704747000010684, 0.385395499994047, 0.40437770006246865, 0.4199019999941811, 0.43705700000282377, 0.4529824999626726, 0.47106800007168204, 0.48711930005811155, 0.5030503000598401, 0.5179541000397876, 0.5361465000314638, 0.5526292000431567, 0.5719340000068769, 0.5874831000110134, 0.6050976000260562, 0.6213589999824762, 0.637481200043112, 0.6536461999639869, 0.6708483999827877, 0.6870738000143319, 0.7056417000712827, 0.7202802000101656, 0.7381427000509575, 0.7529481999808922, 0.7710045999847353, 0.7876613000407815, 0.8046147000277415, 0.8192470000358298, 0.8371869999682531, 0.8532889999914914, 0.8710282000247389, 0.8860413000220433, 0.9040771999862045, 0.9180356999859214, 0.9351809000363573, 0.9532589999726042, 0.971746199997142, 0.9876204000320286, 1.0043176000472158, 1.020211199996993, 1.0377903999760747, 1.0533985999645665, 1.070748700061813, 1.0848680000053719, 1.1036364000756294, 1.1195020000450313, 1.1375075000105426, 1.1541957000736147, 1.1713009000523016, 1.1863765000598505, 1.2060233000665903, 1.220554200001061, 1.2375446000369266, 1.2521602000342682, 1.270594900008291, 1.2862872000550851, 1.3032685000216588, 1.3188943000277504, 1.3369053000351414, 1.3522205000044778]
S08;4;0;0;1;False;1000;True;;8;8.734852645715362;eye;L;6.415398716926575;0.7619392052292824;6.77;6.46;1.3300954999867827;1.3301798000466079;1685696494.0934136;1685696494.11293;1685696494.8669064;1685696495.3693166;1685696496.350815;1685696497.680669;[-0.11269843578338623, -0.11722669005393982, -0.043443381786346436, -0.06404107809066772, -0.11218088865280151, -0.25574642419815063, -0.11014071106910706, -0.07550185918807983, -0.09801006317138672, -0.22176894545555115, -0.19567528367042542, -0.134561687707901, -0.13897499442100525, -0.23088547587394714, -0.2775898575782776, -0.12707707285881042, -0.2021712362766266, -0.17443320155143738, -0.18938884139060974, -0.16435348987579346, -0.12027591466903687, -0.08872988820075989, 0.10025918483734131, 4.9803526401519775, 6.747423887252808, 6.557751357555389, 6.53138929605484, 6.372333586215973, 6.512223064899445, 6.6051154136657715, 6.449808239936829, 6.509368062019348, 6.51527738571167, 6.595903754234314, 6.538318991661072, 6.460359632968903, 6.443474233150482, 6.5100860595703125, 6.297992527484894, 6.241818845272064, 6.225412487983704, 6.310567677021027, 6.209840774536133, 6.32031387090683, 6.347321450710297, 6.31046462059021, 6.137916445732117, 6.413294553756714, 6.22489607334137, 6.265158295631409, 6.330932080745697, 6.341965913772583, 6.301520228385925, 6.307481646537781, 6.282237350940704, 6.38221001625061, 6.295677721500397, 6.309293627738953, 6.240932106971741, 6.233587920665741, 6.303784072399139, 6.286862432956696, 6.212396800518036, 6.33988893032074, 6.284481942653656, 6.18897807598114, 6.307035446166992, 6.271640658378601, 6.323513150215149, 6.386969864368439, 6.3293046951293945, 6.287939429283142, 6.265767574310303, 6.328884541988373, 6.441852509975433, 6.408864259719849, 6.436695158481598, 6.560781896114349, 6.286673307418823, 6.415398716926575];[0.27612011432647704, 0.35767647475004194, 0.26172015890479083, 0.3347870662808418, 0.2864040859043598, 0.38012150824069973, 0.279399349540472, 0.42506735846400256, 0.2081011176109314, 0.39766644090414044, 0.20243076682090758, 0.314251584559679, 0.3147271603345871, 0.27356448546051976, 0.26791714131832123, 0.4842212319374084, 0.32120242863893506, 0.3154904767870903, 0.3391192495822906, 0.27870505303144455, 0.1378980651497841, 0.1437675967812538, 0.2847586378455162, 1.2759887136518955, 1.2016740895807743, 1.4140308067202567, 1.4233986094594, 1.2478326737880705, 1.2058934457600117, 1.3068894781172276, 1.3399516068398951, 1.3583421126008033, 1.2026066467165946, 1.1755546107888222, 1.1120335713028906, 1.1036711275577544, 1.1208656027913093, 1.2521409049630163, 1.1613481633365152, 1.0810231313109397, 1.0234116487205027, 1.0305736497044562, 1.0162493325769901, 1.0234822444617748, 1.09749273955822, 1.1451744899153709, 1.0734971210360527, 1.0112717024981974, 1.0103076294064521, 1.0188125252723692, 1.0331264421343802, 0.9996306538581847, 1.0708132222294806, 0.9625423617660999, 0.8756613805890082, 0.8536720678210258, 0.8161012664437294, 0.9780135445296764, 1.0686912529170511, 1.033978633582592, 1.099158988147974, 1.136372398585081, 1.188745929300785, 1.2816552825272083, 1.0372540868818758, 0.9024798832833766, 1.0199430026113987, 1.0279704317450522, 0.8865614891052246, 0.876863083988428, 0.7709225133061408, 0.8196521691977977, 0.7571056030690669, 0.7911207742989063, 0.6552595853805542, 0.9350201077759265, 1.0378012038767337, 1.0553748160600662, 0.8965006761252879, 0.7619392052292824];[0.005842800019308925, 0.018715400015935302, 0.03568480000831187, 0.052554700057953596, 0.06886730005498976, 0.08642569999210536, 0.10236969997640699, 0.11932429997250438, 0.1359838000498712, 0.15230920002795756, 0.16766520007513463, 0.18481040000915527, 0.20030749996658415, 0.21802729996852577, 0.23576670000329614, 0.2521289000287652, 0.2680528999771923, 0.28713289997540414, 0.3016778000164777, 0.31913099996745586, 0.33479600003920496, 0.3521927000256255, 0.367140099988319, 0.3861513000447303, 0.40159490006044507, 0.4192734999815002, 0.4353320000227541, 0.45387159998063, 0.4680644000181928, 0.485857899999246, 0.501954699982889, 0.5180414000060409, 0.5354505999712273, 0.5523295999737456, 0.5682084000436589, 0.5883849000092596, 0.6015602999832481, 0.6189460000023246, 0.636475200066343, 0.6521819999907166, 0.6691884000319988, 0.685514000011608, 0.7027414999902248, 0.7201101999962702, 0.734717300045304, 0.7527146000647917, 0.7678894000127912, 0.7859424999915063, 0.801691300002858, 0.8193020999897271, 0.8326303999638185, 0.8513701000483707, 0.8677507999818772, 0.8862192999804392, 0.9015692999819294, 0.9186285000760108, 0.9347103000618517, 0.9534132999833673, 0.9682201000396162, 0.985954700037837, 1.0012484000762925, 1.0171336999628693, 1.0347345999907702, 1.0518429999938235, 1.0683901000302285, 1.0851016000378877, 1.1006255999673158, 1.1176864000735804, 1.1346962000243366, 1.1507536000572145, 1.1672976000700146, 1.1837165000615641, 1.2002823000075296, 1.2168312000576407, 1.2348936999915168, 1.2521401999983937, 1.2679890000727028, 1.2842698000604287, 1.3011525999754667, 1.3182351000141352]
S08;5;0;0;1;False;3000;True;;8;-172.06717197165932;eye;L;-6.538549453020096;-0.7556946337223053;-173.41;6.58;1.1977706999750808;1.1978638001019135;1685696498.4253485;1685696498.4453642;1685696499.2005734;1685696499.7021184;1685696502.700803;1685696503.8989136;[-0.14795958995819092, -0.041518718004226685, -0.06646856665611267, -0.0004394054412841797, -0.018244951963424683, -0.055521368980407715, -0.058750659227371216, 0.017793089151382446, -0.013727456331253052, -0.18516522645950317, -0.14247721433639526, -0.07432520389556885, -0.08138400316238403, -0.13871225714683533, -0.1945093870162964, -0.05243590474128723, 0.031190991401672363, 0.010863393545150757, 0.10858410596847534, -0.037560105323791504, 0.11706304550170898, -0.12682509422302246, -0.11835691332817078, -0.08352893590927124, -0.04645976424217224, -0.015251219272613525, -0.0902394950389862, -0.11601606011390686, -2.7155301570892334, -6.454167187213898, -6.226390391588211, -6.679722040891647, -6.756610631942749, -6.569951087236404, -6.6617132127285, -6.6357599794864655, -6.858614414930344, -6.7978722751140594, -6.655840128660202, -6.799763530492783, -6.777657926082611, -6.729600787162781, -6.689221918582916, -6.705703020095825, -6.829328835010529, -6.8003541231155396, -6.743312388658524, -6.804156452417374, -6.841514408588409, -6.827203154563904, -6.859185755252838, -6.822000503540039, -6.7954957485198975, -6.904568523168564, -6.904573619365692, -6.767414569854736, -6.804637759923935, -6.6594991981983185, -6.697230875492096, -6.58235976099968, -6.766625791788101, -6.687010169029236, -6.810110509395599, -6.718820631504059, -6.776655673980713, -6.6924228966236115, -6.686549246311188, -6.90556737780571, -6.711554020643234, -6.732697576284409, -6.755989462137222, -6.538549453020096];[0.6603185266256332, 0.44452972188591955, 0.5534693509340286, 0.4461332537233829, 0.574319677054882, 0.5701353035867214, 0.5935793928802013, 0.4166995570063591, 0.4715609572827816, 0.45874310284852976, 0.46062649637460706, 0.4496753320097923, 0.5685667544603348, 0.5784205332398414, 0.5229858577251434, 0.6470329754054546, 0.760306678712368, 0.6807021014392376, 0.6912526980042457, 0.602709250152111, 0.5776739202439785, 0.5720609284937381, 0.7229542829096317, 0.5741564244031906, 0.6456591948866843, 0.6298668645322323, 0.658949788659811, 0.6588139548897742, 0.18967941105365752, -0.6226859539747238, -0.5418128594756126, -0.51488688737154, -0.5907842427492142, -0.49421557188034054, -0.4130348816514015, -0.594963888823986, -0.5573848932981491, -0.7667523220181465, -0.795047977566719, -0.7556795060634612, -0.47070592939853667, -1.0002319782972335, -0.9117282405495643, -0.6237921640276909, -0.5841331154108047, -0.700643192231655, -0.7344528794288635, -0.856723442673683, -0.791303251683712, -0.9786977559328078, -0.8758964896202087, -0.7564302161335945, -0.6949797749519347, -0.8512100413441658, -0.8719733834266662, -0.8809661462903022, -0.8836330264806747, -0.8435327544808388, -0.7579637825489044, -0.636185498535633, -0.6341275066137313, -0.9158423334360122, -0.7476505011320114, -0.8409648343920707, -0.6683834597468375, -0.8638403758406639, -0.6618067100644112, -0.6163298159837722, -0.8378655552864074, -0.9061417222023009, -0.7698408856987953, -0.7556946337223053];[0.0051620000740513206, 0.01742070005275309, 0.03513810003641993, 0.05016260000411421, 0.07074650004506111, 0.08578350010793656, 0.10264730011112988, 0.1189576000906527, 0.1349091000156477, 0.15079930005595088, 0.1702732000267133, 0.18637900007888675, 0.20129310002084821, 0.2178184000076726, 0.23422330000903457, 0.2510897000320256, 0.2693223000969738, 0.2854745000367984, 0.3033345000585541, 0.3182141000870615, 0.33479720004834235, 0.3529445000458509, 0.3697762000374496, 0.3856553001096472, 0.40255030000116676, 0.41764450003392994, 0.43457070004660636, 0.451423600083217, 0.4699768000282347, 0.48673250002320856, 0.5036730000283569, 0.5184921000618488, 0.5355369000462815, 0.5502567000221461, 0.5679830000735819, 0.5846257000230253, 0.6014562000054866, 0.6162619000533596, 0.6341995000839233, 0.6521473000757396, 0.6701268000761047, 0.6848900000331923, 0.7016497000586241, 0.7176936001051217, 0.7363785000052303, 0.7515193000435829, 0.7685005000093952, 0.7849539000308141, 0.8035379000939429, 0.8180630001006648, 0.8360874000936747, 0.8506993000628427, 0.8680254000937566, 0.8854970000684261, 0.9027712000533938, 0.9179229000583291, 0.9351910001132637, 0.950904400087893, 0.9697857000865042, 0.986092200037092, 1.0032518000807613, 1.0187761000124738, 1.0378790000686422, 1.051127600017935, 1.0685845001135021, 1.083859600010328, 1.1008750000037253, 1.1170130000682548, 1.133945900015533, 1.1503169001080096, 1.1673179001081735, 1.1828192000975832]
S08;6;0;0;1;False;3000;True;;8;-134.27626084923014;eye;L;-5.5032468140125275;-5.455329398810863;-135.25;7.75;1.9302571000298485;1.930388699984178;1685696504.6076603;1685696504.6280808;1685696505.383723;1685696505.8846226;1685696508.8850095;1685696510.8148773;[-0.06489497423171997, -0.005186796188354492, -0.2783452272415161, -0.10630780458450317, -0.05858984589576721, -0.057875245809555054, -0.26539918780326843, -0.21873614192008972, -0.26394733786582947, -0.18717142939567566, -0.13919129967689514, -0.09516242146492004, -0.42964622378349304, -0.24746397137641907, -0.32044774293899536, -0.37975502014160156, -0.275237113237381, -0.39596205949783325, -0.3372906744480133, -0.3170112073421478, -0.3783915042877197, -0.499897301197052, -0.45917585492134094, -0.36992672085762024, -0.42973965406417847, -2.86203733086586, -4.69227197766304, -4.470284461975098, -4.764680445194244, -4.915886878967285, -4.6791605949401855, -4.82245659828186, -4.670484036207199, -4.988557517528534, -4.987037718296051, -4.794654011726379, -4.95387676358223, -4.903026908636093, -4.992812275886536, -4.85117706656456, -4.879226535558701, -4.892665773630142, -4.856554687023163, -4.891230911016464, -5.040067613124847, -5.038078397512436, -4.877325654029846, -4.945433497428894, -4.8925797045230865, -4.870187014341354, -4.871603190898895, -4.840550363063812, -4.811006009578705, -4.782184183597565, -4.822894304990768, -4.876318871974945, -4.913168907165527, -4.8415746986866, -4.754869699478149, -4.988037705421448, -4.9121547639369965, -4.895268231630325, -4.907202959060669, -4.870132088661194, -4.817071050405502, -4.793385624885559, -4.754682272672653, -4.779422044754028, -4.651825726032257, -4.797139257192612, -4.882587760686874, -4.908331483602524, -4.890265464782715, -4.800346463918686, -4.675966411828995, -4.5613846480846405, -4.530821055173874, -4.551445364952087, -4.57868567109108, -4.706052660942078, -4.785825133323669, -4.600919246673584, -4.620237797498703, -4.527540236711502, -5.954692870378494, -5.357585608959198, -5.629434317350388, -5.707343280315399, -5.70631667971611, -5.707098096609116, -5.521293014287949, -5.510812968015671, -5.559391051530838, -5.791412979364395, -5.654519498348236, -5.569514364004135, -5.493720889091492, -5.608454406261444, -5.714652359485626, -5.596292048692703, -5.592988580465317, -5.626919627189636, -5.570630997419357, -5.570350706577301, -5.636498212814331, -5.609353601932526, -5.666836440563202, -5.6363725066185, -5.720801204442978, -5.785598784685135, -5.5707952082157135, -5.64675572514534, -5.637961387634277, -5.592952340841293, -5.5032468140125275];[-0.538307024538517, -0.6296938419342041, -0.19834125638008115, -0.5292562723159789, -0.44103617817163465, -0.4235019609332084, -0.18671438992023467, -0.5861123174428939, -0.5545698881149291, -0.3961757361888885, -0.31438741832971573, -0.22559562474489211, -0.7957167461514473, -0.45486664026975626, -0.11416844129562377, -0.3384574145078659, -0.38633834570646286, -0.562764036655426, -0.6116055741906166, -0.7187175929546356, -0.5029382430016994, -0.6887998111546039, -0.4488729357719421, -0.640231516957283, -0.5344025127589702, -2.0139130756258963, -2.874536933004856, -3.0381967708468434, -3.0887099146842956, -3.156027366220951, -3.1088889509439466, -3.2383388489484783, -3.0947420686483382, -3.0116672694683073, -3.004781663417816, -3.2079026296734807, -2.8860326930880547, -2.968597564101219, -3.115217354893684, -2.994245249032974, -3.081994494795799, -3.0811341091990467, -2.8570657476782797, -2.845274998247623, -2.940743131935596, -2.786181320250034, -2.782978668808937, -2.783000099658966, -2.8214085951447485, -2.75654623657465, -2.9234484359622, -2.9148464709520336, -2.8309736877679823, -2.829467225074768, -2.763896387815475, -2.7322480648756025, -2.8018409684300423, -2.8683100104331967, -2.846046508848667, -2.9001020461320874, -2.751492968201637, -2.788021221756935, -2.7847063735127446, -2.7789874881505963, -2.9202174201607702, -2.853058809041977, -2.95190482288599, -3.024148218333721, -2.9493072777986526, -2.9016570433974262, -2.915171085298061, -2.9589555725455283, -3.0037687405943867, -2.9582294449210167, -3.1067004829645155, -3.028666345775127, -3.1394159361720084, -3.2291116073727606, -3.2869099795818326, -3.0976762041449546, -3.158438967168331, -2.935604140162468, -3.088626082241535, -3.698277667164802, -4.741850388050079, -5.250176914036274, -5.309661389887332, -5.278013697266578, -5.15225116610527, -5.127523747086524, -5.227100931107998, -5.222485734522342, -5.466042932868003, -5.27429481446743, -5.101770168542862, -5.235999146103858, -5.254962927103042, -5.234111340343952, -5.178497023880482, -5.365046900510787, -5.343140159547328, -5.293196193873882, -5.314146110415458, -5.395564430952072, -5.355430121719837, -5.323204426467418, -5.395931276679039, -5.2729371070861815, -5.388889981806278, -5.3411830186843865, -5.5941887006163595, -5.270304894447326, -5.544777984917164, -5.438992157578468, -5.455329398810863];[0.009106300072744489, 0.031960400054231286, 0.05400720005854964, 0.06745570001658052, 0.08691569999791682, 0.10147600003983825, 0.11799589998554438, 0.13258650002535433, 0.15209690004121512, 0.1651894999668002, 0.18270360003225505, 0.2000399000244215, 0.21830680000130087, 0.23412829998414963, 0.25180319999344647, 0.2679035000037402, 0.28479469998274, 0.300459900056012, 0.3180202000075951, 0.33382739999797195, 0.350840299972333, 0.365337900002487, 0.38402940006926656, 0.4011179000372067, 0.41879789996892214, 0.43422509997617453, 0.45251670002471656, 0.4684574999846518, 0.4864545000018552, 0.5004094999749213, 0.5192228000378236, 0.5327002999838442, 0.5505788000300527, 0.5670545999892056, 0.5848091000225395, 0.6016388999996707, 0.6195995999732986, 0.6352089999709278, 0.6503155999816954, 0.6671441000653431, 0.6861378999892622, 0.701225999975577, 0.7194246000144631, 0.7345949000446126, 0.7521458000410348, 0.7668762999819592, 0.7853729000780731, 0.8013114000204951, 0.8183788000606, 0.8349605000112206, 0.8516753000440076, 0.8686969999689609, 0.8851172999711707, 0.9022252999711782, 0.9201444999780506, 0.9357900000177324, 0.9533686999930069, 0.9677371999714524, 0.9842409000266343, 1.00080809998326, 1.0188446000684053, 1.034181399969384, 1.0530327999731526, 1.0668332000495866, 1.0838122999994084, 1.1000064000254497, 1.1175777000607923, 1.1342997000319883, 1.1529404000611976, 1.1682088000234216, 1.1860095000592992, 1.2015131000662223, 1.2189184000017121, 1.2360288000199944, 1.2525320000713691, 1.267387600033544, 1.2842088000616059, 1.300192299997434, 1.317746700020507, 1.334745500003919, 1.353869799990207, 1.3686255000066012, 1.3847416000207886, 1.4005270000780001, 1.4197610999690369, 1.434930199990049, 1.4520628000609577, 1.4679471000563353, 1.4842866000253707, 1.499597700079903, 1.5189557999838144, 1.534684400074184, 1.5525644000153989, 1.5684450999833643, 1.5846098000183702, 1.6015577999642119, 1.6199577000224963, 1.633849999983795, 1.6529357000254095, 1.6679883999750018, 1.6852092000190169, 1.7006013999925926, 1.720547000062652, 1.7347292000195011, 1.7516500999918208, 1.7690299999667332, 1.7838524000253528, 1.801551099983044, 1.8188956000376493, 1.8346560000209138, 1.8538032000651583, 1.8682266999967396, 1.8861867999657989, 1.8990987000288442, 1.918357599992305]
S08;7;0;0;1;False;1000;True;;8;-163.7201414613383;eye;L;-6.894188702106476;-3.1289261654019356;-155.59;7.57;1.001877799979411;1.0019252999918535;1685696511.5248718;1685696511.544537;1685696512.2990975;1685696512.798722;1685696513.7795694;1685696514.7818;[0.2707037627696991, 0.275438129901886, 0.33378052711486816, 0.4856879711151123, 0.3270184397697449, 0.19838136434555054, -0.05409839749336243, 0.31837302446365356, 0.16973960399627686, 0.1573677361011505, 0.2270117998123169, 0.20850354433059692, 0.40347498655319214, 0.054729193449020386, 0.11342775821685791, -0.014277279376983643, 0.1821748912334442, -0.9222831428050995, -5.652226775884628, -6.891119092702866, -6.548036307096481, -6.813516467809677, -6.653889983892441, -6.702885389328003, -6.797551214694977, -6.7714241445064545, -6.763201713562012, -6.897453099489212, -7.104591429233551, -6.9421597719192505, -6.841347366571426, -6.812938898801804, -6.890284448862076, -6.910510689020157, -6.862522065639496, -6.90506511926651, -6.884220540523529, -6.8508568704128265, -6.865379899740219, -6.882823616266251, -6.883165061473846, -6.664755642414093, -6.877704203128815, -7.042623937129974, -6.932854115962982, -7.002679377794266, -6.953796088695526, -6.955273985862732, -6.771844863891602, -6.714893162250519, -6.662671864032745, -6.9721055924892426, -7.045593321323395, -7.067345589399338, -7.068217605352402, -7.2023042142391205, -6.969679802656174, -6.832080215215683, -6.864974468946457, -6.894188702106476];[-0.8949869647622107, -0.9582401186227798, -0.7894570469856261, -0.7976660080254078, -0.7151821330189705, -0.743191623687744, -1.0538771778345106, -1.0217920437455177, -0.8604448467493057, -0.933021681010723, -0.5865415647625922, -0.36360147446393964, -1.1294801741838454, -1.0238078042864798, -1.1310792937874794, -0.9218952879309653, -1.2829546853899956, -1.4243207663297652, -2.813023459911346, -3.483573956787586, -3.226879647374153, -3.3257918447256087, -3.393254269659519, -3.1121691316366196, -3.346302428841591, -3.2983086705207825, -3.328670512139797, -3.020163971185684, -3.0211113408207892, -3.190299707651138, -3.203211164474487, -3.230303540825844, -3.3515945881605145, -3.284574647247791, -3.334514200687408, -3.3780282810330386, -3.2043797761201858, -3.136691066622734, -3.389620479941368, -3.213168945908546, -3.0047306075692175, -3.1440538242459297, -3.197127954661846, -3.19379041492939, -3.153963701426983, -3.312531191110611, -3.1185971260070797, -3.2568216964602468, -3.14407462477684, -3.0591700091958045, -3.358997055888176, -3.063620692491531, -3.2609591111540794, -3.4718865796923635, -3.039512877166271, -3.1456403374671935, -3.1386419042944906, -3.2456064283847805, -3.129439245164394, -3.1289261654019356];[0.004082699888385832, 0.021307999966666102, 0.036544099915772676, 0.05355069995857775, 0.06937709997873753, 0.08670069999061525, 0.10298279998824, 0.11991459992714226, 0.13587949995417148, 0.1536730999359861, 0.17139369994401932, 0.19000919989775866, 0.20599559997208416, 0.22148209996521473, 0.23815339989960194, 0.25536909990478307, 0.2699809999903664, 0.28681769990362227, 0.3030141999479383, 0.3212953999172896, 0.3383985999971628, 0.35856909991707653, 0.3723996999906376, 0.3901812999974936, 0.406308599980548, 0.42385909997392446, 0.43797619990073144, 0.45654749998357147, 0.47300769994035363, 0.4905242999084294, 0.5061603999929503, 0.5242887999629602, 0.5396642999257892, 0.5568328999215737, 0.5713590999366716, 0.5910924999043345, 0.6074195998953655, 0.6244712999323383, 0.63896459992975, 0.656716899946332, 0.6729125999845564, 0.689443799899891, 0.7050165999680758, 0.7214703999925405, 0.7385342998895794, 0.7568401999305934, 0.7726784999249503, 0.7884276999393478, 0.8045569999376312, 0.8233712998917326, 0.8383508999831975, 0.8570458999602124, 0.8715003998950124, 0.88924719998613, 0.9050884998869151, 0.9223486999981105, 0.9383119998965412, 0.9557764999335632, 0.9724500998854637, 0.98880069993902]
S08;8;0;0;1;False;3000;True;;8;68.73164060192433;eye;L;4.359502196311951;6.808077429234981;57.37;8.08;2.130724099930376;2.1308575000148267;1685696515.69206;1685696515.711791;1685696516.4664335;1685696516.9653225;1685696519.9668097;1685696522.0972118;[3.234069347381592, 3.110893130302429, 3.1350672245025635, 3.176275074481964, 3.1360830664634705, 3.1154842376708984, 3.0870587825775146, 3.112548828125, 3.168859541416168, 3.1105024218559265, 3.1159587502479553, 3.2602003812789917, 3.195262372493744, 3.0816919207572937, 3.086456298828125, 3.116853415966034, 3.0356109738349915, 3.0095444917678833, 3.2014570832252502, 3.076920747756958, 3.2749170660972595, 3.128530502319336, 2.953357219696045, 3.1085511445999146, 3.0622233152389526, 3.1742796301841736, 3.287316679954529, 3.197674572467804, 3.101917028427124, 3.2324951887130737, 3.224203109741211, 3.23918479681015, 3.2071444392204285, 3.1952555775642395, 3.228138506412506, 3.1261443495750427, 3.0862388610839844, 3.0094584226608276, 3.0435089468955994, 3.1800530552864075, 3.098170757293701, 3.106432259082794, 3.010824203491211, 3.023495614528656, 3.0882014632225037, 2.917140245437622, 3.067694365978241, 3.003451704978943, 3.059496283531189, 2.9086601734161377, 2.9716978669166565, 2.8446677923202515, 2.8341005444526672, 2.969642400741577, 3.044428527355194, 3.0343459844589233, 2.985314905643463, 2.741150438785553, 2.9828256964683533, 2.816397488117218, 2.957584798336029, 3.0398294925689697, 3.0100518465042114, 3.0597726106643677, 2.925453841686249, 2.954012930393219, 3.0279723405838013, 2.9184324145317078, 2.847196638584137, 2.9228525161743164, 2.807582199573517, 2.8610548973083496, 2.8970804810523987, 2.8404470086097717, 2.949268937110901, 2.8846593499183655, 2.8863988518714905, 2.976381838321686, 2.905891239643097, 2.9846965670585632, 2.900812029838562, 3.10438472032547, 3.102068781852722, 2.969138443470001, 2.931264638900757, 3.065074920654297, 3.0511985421180725, 3.0698245763778687, 3.0301761627197266, 3.033813714981079, 2.9517672061920166, 3.179869592189789, 3.192482113838196, 3.1602379083633423, 3.9868818521499634, 3.9831786155700684, 4.031296908855438, 3.980881929397583, 4.02387797832489, 4.0750585198402405, 4.088203310966492, 3.946900486946106, 4.062829911708832, 4.093780815601349, 4.008330047130585, 3.983392655849457, 4.2496225237846375, 3.9245859384536743, 4.111944794654846, 4.057889997959137, 4.136341989040375, 4.1233580112457275, 4.281563222408295, 4.181486368179321, 4.35506397485733, 4.326749503612518, 4.417150378227234, 4.294661581516266, 4.1979493498802185, 4.341552257537842, 4.173928141593933, 4.213890254497528, 4.195795357227325, 4.2445478439331055, 4.311377108097076, 4.186736583709717, 4.359502196311951];[5.3788926478475325, 5.141057801619172, 5.311241127178072, 5.131308813393115, 5.402242031693458, 5.546710385754704, 5.280821611359715, 5.392683242261409, 5.184584961086511, 5.491110881790519, 5.3892506819218395, 5.330951836332678, 5.245421944186091, 5.259619724750518, 5.261009105667472, 5.1128152504563324, 5.379429679736495, 5.182884675264358, 5.420936193689704, 5.132710958272218, 5.536620867624879, 5.311807941645384, 5.348455640673637, 5.216809080541133, 5.443930550292134, 5.464112738147378, 5.626924008876085, 5.467287655547261, 5.574409129098058, 5.345402847602963, 5.571216090023517, 5.556397445127367, 5.549744899570942, 5.456830818951129, 5.361690451204776, 5.569251700490713, 5.377549910545349, 5.415834390744567, 5.422822738811373, 5.591695315763354, 5.8566545270383354, 5.397538275271653, 5.318968366831541, 5.614655635133385, 5.455440965294837, 5.433964574709535, 5.399399922788143, 5.475415305420756, 5.507302046567201, 6.231180692464113, 6.058269818499684, 6.238418174162507, 6.234415017440915, 6.237372474744916, 6.168816130980849, 6.256642275676131, 6.224284370988607, 6.3370059147477145, 5.988805657625198, 6.703292391076683, 6.346061551943421, 6.24814321026206, 6.378132661432027, 6.275926731526852, 6.146255276352167, 6.24574421569705, 6.3422498546540735, 6.079642994329333, 6.377689547091722, 6.327183651924133, 6.56724699139595, 6.774044609069824, 6.477149176597595, 6.368142418563366, 6.301342143863439, 6.358047542721033, 6.406593303009867, 6.448863290995359, 6.336660657450556, 6.641245352849364, 6.451807354018092, 6.308432130888104, 6.109219931066036, 6.260611237585544, 6.82895076200366, 6.096129463613033, 5.916836923733353, 6.16798363700509, 6.257868561521172, 6.171292024478316, 6.420868927985429, 6.436325298249721, 6.370195998251438, 6.287528700381517, 7.4944009529426685, 6.733280611038207, 6.790449136868118, 6.844305650889873, 6.644540188461542, 6.861483107507229, 7.017892226949334, 6.790793606266379, 7.043994214385747, 6.789392249286174, 6.990083020180463, 7.247358011081814, 7.06454230248928, 6.829066425561904, 7.1395726539194575, 7.046768879145383, 6.865021719038486, 6.714635613933205, 7.340225920826196, 6.7531997982412575, 7.077692335098981, 7.096387915313243, 6.9725571546703575, 6.943872434645891, 6.770800514146685, 6.979970652982592, 6.770601963624357, 7.111133915930986, 6.801959867030382, 6.947489678487181, 7.108154870197176, 7.0590337861329315, 6.808077429234981];[0.007556500029750168, 0.03361929999664426, 0.053806399926543236, 0.06846580002456903, 0.08630900003481656, 0.10119710001163185, 0.11925250000786036, 0.13434099999722093, 0.15278939995914698, 0.16921660001389682, 0.18784529995173216, 0.20078499999362975, 0.21948169998358935, 0.23429009993560612, 0.25331329996697605, 0.26800429995637387, 0.2848686999641359, 0.301012699957937, 0.31809670000802726, 0.3345433999784291, 0.3520261999219656, 0.3683517000172287, 0.38621849997434765, 0.4017154999310151, 0.41831610002554953, 0.43428019993007183, 0.45215529995039105, 0.4683800999773666, 0.48597829998470843, 0.501529400004074, 0.5193957999581471, 0.5352507999632508, 0.5518429999938235, 0.5684395999414846, 0.5852664000121877, 0.6030808999203146, 0.619241299922578, 0.6359415999613702, 0.6518637000117451, 0.667951799929142, 0.6857345999451354, 0.7012567999772727, 0.7211672000121325, 0.7354176000226289, 0.752343500033021, 0.7702090999810025, 0.7868818999268115, 0.8022254999959841, 0.8190254999790341, 0.8353173999348655, 0.8522873999318108, 0.8694123999448493, 0.8864428999368101, 0.9012869999278337, 0.9173811000073329, 0.9345771999796852, 0.9508117999648675, 0.9662263999925926, 0.9849243999924511, 1.0018781999824569, 1.0189599000150338, 1.0364165999926627, 1.0527834999375045, 1.0672949999570847, 1.0861205999972299, 1.1020198999904096, 1.117854499956593, 1.134043199941516, 1.1511180999223143, 1.167283199960366, 1.1843134999508038, 1.2010618000058457, 1.2199120000004768, 1.2361225000349805, 1.2521014999365434, 1.2703237999230623, 1.2854042999679223, 1.3010881999507546, 1.3199928000103682, 1.3340365999611095, 1.3536750000203028, 1.3678426999831572, 1.3849927999544889, 1.4006888000294566, 1.4188375999219716, 1.4335418000118807, 1.452191499993205, 1.4684017000254244, 1.4863543999381363, 1.5016806999919936, 1.5184002999449149, 1.5338180999970064, 1.5517254000296816, 1.5676365999970585, 1.5857433000346646, 1.6005481999600306, 1.6199891000287607, 1.6348471000092104, 1.6518438999773934, 1.6681730999844149, 1.6853779000230134, 1.7011538000078872, 1.7191425999626517, 1.7341537999454886, 1.7515098999720067, 1.7681965000228956, 1.7847948999842629, 1.8018583999946713, 1.8185061999829486, 1.8333008999470621, 1.8534427999984473, 1.8677020999602973, 1.886601599981077, 1.9021908999420702, 1.9191494999686256, 1.935709899989888, 1.9516721999971196, 1.9667549999430776, 1.9845824999501929, 2.0009881999576464, 2.01837990002241, 2.0347829000093043, 2.0522673999657854, 2.069113399949856, 2.0851176999276504, 2.1010168999200687, 2.11890250002034]
S08;9;0;0;1;False;1000;True;;8;37.24024287176155;eye;L;5.47766900062561;4.300739517062902;38.14;6.96;1.0506789999781176;1.050806799903512;1685696522.883288;1685696522.894206;1685696523.6503413;1685696524.151019;1685696525.1318426;1685696526.1829596;[-0.11035701632499695, 0.05220600962638855, 0.021696776151657104, 0.13751068711280823, -0.05370032787322998, 0.06244540214538574, 0.006982922554016113, 0.0412520170211792, 0.0872616171836853, 0.06624263525009155, 0.007625609636306763, 0.07091754674911499, 0.17720270156860352, 0.12237781286239624, 0.16810938715934753, 0.2556008994579315, 0.33755624294281006, 0.17014503479003906, 0.29588577151298523, 0.169908344745636, 0.21394288539886475, 0.2660095989704132, 2.8820274472236633, 5.569372236728668, 5.291661202907562, 5.495085537433624, 5.63538384437561, 5.389875113964081, 5.496181786060333, 5.6034035086631775, 5.596311867237091, 5.544916152954102, 5.562449336051941, 5.631373703479767, 5.478674650192261, 5.538345456123352, 5.445304751396179, 5.565778851509094, 5.423551917076111, 5.468780100345612, 5.580407202243805, 5.531219840049744, 5.360225439071655, 5.535483658313751, 5.389647483825684, 5.466045141220093, 5.434560835361481, 5.448140501976013, 5.4097899198532104, 5.463008940219879, 5.43570351600647, 5.586938261985779, 5.507228076457977, 5.396106064319611, 5.446300208568573, 5.4826712012290955, 5.49571293592453, 5.42069011926651, 5.311271369457245, 5.551126718521118, 5.3296584486961365, 5.536573112010956, 5.47766900062561];[0.8086231604218482, 0.778145970404148, 0.7667274244129657, 0.7039044633507728, 0.9068710014224052, 0.7432612739503384, 0.5239984653890133, 0.7215489864349365, 0.6169125460088253, 0.7583848357200622, 0.6758719660341739, 0.7638162955641746, 0.7724072299897671, 0.8086534157395362, 0.5759367607533932, 0.6660774372518062, 0.7728711448609829, 0.747503636777401, 0.7475477591156959, 0.8313389159739016, 0.7351166054606437, 0.7105039045214653, 2.768219431489706, 4.783263299614191, 4.3952344380319115, 4.649924332648515, 4.549859596788883, 4.5877304300665855, 4.607127555459737, 4.57078430056572, 4.464634148776531, 4.461963801831007, 4.410432062298059, 4.435400578379631, 4.639880512654781, 4.554849518090486, 4.436848421394824, 4.4502562545239925, 4.588248552381992, 4.484823585301637, 4.292041113227605, 4.263230802118778, 4.582169124484062, 4.441444078087806, 4.487925385683774, 4.557078011333942, 4.361667108535766, 4.541629520058631, 4.363558696210384, 4.317336764931678, 4.475032523274422, 4.412539849430322, 4.24112204387784, 4.298886063694954, 4.3374726243317125, 4.124164755642414, 4.289433483034372, 4.302087454497814, 4.342174174636602, 4.251232047379016, 4.31272282898426, 4.158936309814453, 4.300739517062902];[0.0052423999877646565, 0.019045199966058135, 0.0361312999157235, 0.05424650001805276, 0.06904179998673499, 0.08742759993765503, 0.10297619993798435, 0.11995159997604787, 0.13598719995934516, 0.15344139991793782, 0.1685670999577269, 0.18820939993020147, 0.20145990001037717, 0.21981989999767393, 0.23579639999661595, 0.2529504999984056, 0.2675290999468416, 0.2861653999425471, 0.3023902999702841, 0.32016549992840737, 0.33543699991423637, 0.3534830999560654, 0.37040509993676096, 0.38735729991458356, 0.40314750000834465, 0.42094859993085265, 0.43568589992355555, 0.45491129998117685, 0.4693226999370381, 0.48730749997776, 0.5023948999587446, 0.5205057999119163, 0.5354256000136957, 0.5531313999090344, 0.5687387000070885, 0.5873085999628529, 0.6032550999661908, 0.6203882999252528, 0.6369976999703795, 0.6541694999905303, 0.6690071999328211, 0.6870837999740615, 0.7008229999337345, 0.7194949999684468, 0.7352750999853015, 0.7533965000184253, 0.7691851999843493, 0.7870658999308944, 0.8028753999387845, 0.8212609000038356, 0.8349390999646857, 0.8550580999581143, 0.8695025999331847, 0.8866723999381065, 0.9023897999431938, 0.9199223999166861, 0.9360422999598086, 0.9541073999134824, 0.9688612999161705, 0.9876896999776363, 1.0024999999441206, 1.0199538000160828, 1.034914799965918]
S08;10;0;0;1;False;1000;True;;8;-131.01083942202075;eye;L;-4.638296455144882;-6.125071826577186;-127.14;7.68;1.80076310003642;1.8008494999958202;1685696527.0272698;1685696527.0436802;1685696527.8008394;1685696528.300561;1685696529.2813919;1685696531.0819917;[-0.06894248723983765, -0.36075299978256226, -0.14986103773117065, -0.3386666476726532, -0.15893453359603882, -0.20555511116981506, -0.14161992073059082, 0.0015090405941009521, -0.08374184370040894, -0.2137826383113861, 0.07309475541114807, 0.0006189048290252686, -0.07904937863349915, 0.025083482265472412, -0.15192896127700806, -0.1503882110118866, -0.1500212848186493, -0.061263084411621094, -0.16688063740730286, -0.3136194050312042, -0.16119781136512756, -0.15098220109939575, -0.12483984231948853, -0.1832377314567566, -0.04091227054595947, -0.14903658628463745, -0.10280388593673706, -0.2328033447265625, -0.28487175703048706, -0.2342614233493805, -0.14002424478530884, -0.16116836667060852, -0.2638357877731323, -0.18377509713172913, -0.1824432909488678, -0.20218142867088318, -0.1087154746055603, -0.1484912931919098, -0.19656655192375183, -0.168410062789917, -0.17064672708511353, -0.2435721755027771, -3.037839710712433, -4.947884202003479, -4.539159566164017, -4.983643084764481, -4.684786796569824, -4.621256470680237, -4.899971455335617, -4.847390025854111, -4.6142995953559875, -4.592651516199112, -4.468574970960617, -4.657330185174942, -4.749702721834183, -4.675414323806763, -4.74589416384697, -4.730750530958176, -4.639077305793762, -4.589878052473068, -4.7080656588077545, -4.773143529891968, -4.65929901599884, -4.66184201836586, -4.7379231452941895, -4.5046877562999725, -4.504081308841705, -4.724949926137924, -4.690367698669434, -4.751719117164612, -4.6799629628658295, -4.412220656871796, -4.490699261426926, -4.835959821939468, -4.592349708080292, -4.506068259477615, -4.608219265937805, -4.661375999450684, -4.760315269231796, -4.78255507349968, -4.6985006630420685, -4.712143182754517, -4.663065105676651, -4.735010385513306, -4.633301615715027, -4.552820771932602, -4.667770028114319, -4.611522167921066, -4.568097472190857, -4.68543741106987, -4.726300984621048, -4.642535924911499, -4.62963405251503, -4.484200477600098, -4.573522090911865, -4.585564970970154, -4.56868976354599, -4.563748717308044, -4.709343671798706, -4.573185175657272, -4.50773698091507, -4.512080639600754, -4.606080561876297, -4.527350544929504, -4.586946040391922, -4.623467653989792, -4.6629422307014465, -4.638296455144882];[0.6448419861495495, 0.6045778311789035, 0.5244368523359298, 0.5064651936292648, 0.37623054832220076, 0.5489190772175788, 0.49894737750291823, 0.505399639159441, 0.5618141457438468, 0.5224979907274245, 0.5391850590705871, 0.4561928316950798, 0.484028984606266, 0.3128289543092251, 0.4290919460356235, 0.3534571185708046, 0.3774599857628345, 0.4945143431425094, 0.41008498817682265, 0.33953557536005974, 0.363980296254158, 0.42295831069350237, 0.49271950945258136, 0.49923826977610586, 0.4540967054665088, 0.4321962676942348, 0.24244247898459434, 0.3558725014328956, 0.2862556457519531, 0.44653665795922276, 0.3447331868112087, 0.3010463990271091, 0.4147027060389518, 0.493088561296463, 0.3307798124849796, 0.4734982430934906, 0.27639083638787265, 0.22671916857361793, 0.34678203910589217, 0.28576179072260854, 0.28318504616618156, 0.3340231195092201, -1.8798624783754347, -2.696479345858097, -2.6894689366221427, -2.658957079052925, -2.6615401268005368, -2.7810801476240155, -2.650041215121746, -2.592936824262142, -2.6779624611139297, -2.835679019987583, -2.7398068517446514, -2.842356620728969, -2.9834724649786946, -2.9229441806674004, -2.814262667298317, -2.704051999747753, -2.729464575648308, -2.7955516442656516, -2.8474117800593373, -2.9466927140951156, -2.9175940319895743, -2.8251419752836227, -3.0016930997371674, -3.054786770045757, -3.0249953672289847, -2.913969066739082, -3.0629638999700544, -3.082076436281204, -3.174321748316288, -4.739622209966182, -5.904911443591118, -5.88267630636692, -5.927776899933814, -5.856649169325828, -5.879729564487934, -6.108187468349933, -6.005174414813518, -5.939824819564819, -6.0337770357728004, -5.898963752388954, -5.942066864669322, -6.10350419729948, -5.97975490540266, -5.9354787692427635, -5.948133686184883, -6.077175767719745, -5.959967297315597, -6.026161520183086, -5.969633240997791, -6.002876271307468, -6.008598308265209, -5.88441157490015, -5.979020583629608, -5.985502155125141, -5.894295608997345, -5.966988421976566, -6.083708395063876, -6.1099038273096085, -6.151536405086517, -6.171625305712222, -5.9848220407962796, -6.13221271187067, -5.972781054675579, -6.076605328917503, -6.126380369067192, -6.125071826577186];[0.005889100022614002, 0.02140600001439452, 0.03608099999837577, 0.05476050009019673, 0.06994710001163185, 0.08801870001479983, 0.10280900006182492, 0.12108760001137853, 0.1378773000324145, 0.1540233000414446, 0.1695755000691861, 0.18827010004315525, 0.20051790005527437, 0.22005010000430048, 0.23655900009907782, 0.2543688000878319, 0.26905600004829466, 0.2861680000787601, 0.3027161000063643, 0.320706200087443, 0.3366108000045642, 0.35417180007789284, 0.3707251000450924, 0.38742670009378344, 0.40358170005492866, 0.4207224000710994, 0.4367375000147149, 0.45499340002425015, 0.46987400006037205, 0.48771510005462915, 0.5029384000226855, 0.5212560000363737, 0.5370247000828385, 0.5551919999998063, 0.5698952000821009, 0.587274800054729, 0.6039228000445291, 0.6188218999886885, 0.6354338000528514, 0.6539805000647902, 0.670033400063403, 0.6875345000298694, 0.7026001000776887, 0.7207661001011729, 0.7365774000063539, 0.7542077000252903, 0.7696224000537768, 0.7872948000440374, 0.8015897000441328, 0.81981740007177, 0.836490000016056, 0.8549442000221461, 0.8695920000318438, 0.8875924000749364, 0.9025300000794232, 0.9206584000494331, 0.9363027000799775, 0.9548419000348076, 0.9697377000702545, 0.988609499996528, 1.0032831000862643, 1.0205772999906912, 1.0365390999941155, 1.054396799998358, 1.0699000000022352, 1.0876620000926778, 1.103593800100498, 1.1207545000361279, 1.1379289000760764, 1.1535814000526443, 1.1691346000880003, 1.1883792000589892, 1.2029927000403404, 1.2193920999998227, 1.2390833999961615, 1.2539010000182316, 1.2705489000072703, 1.287117600091733, 1.3034878000617027, 1.3202278000535443, 1.3365547000430524, 1.3535208000103012, 1.3697015000507236, 1.386715400032699, 1.402929500094615, 1.418803000007756, 1.437185800052248, 1.4539225000189617, 1.4697066000662744, 1.4867583999875933, 1.5035374000435695, 1.5211799000389874, 1.5371062000049278, 1.5542260000947863, 1.5691995000233874, 1.5890220000874251, 1.6033134000608698, 1.6206004000268877, 1.6370232000481337, 1.6547505999915302, 1.6707650000462309, 1.6875332000199705, 1.7027130000060424, 1.720159100019373, 1.735971700050868, 1.7536370001034811, 1.769807600066997, 1.787587400060147]
S08;11;0;0;1;False;3000;False;;8;102.47236841068242;eye;L;nan;nan;nan;nan;0.0024096000706776977;0.0025329000782221556;1685696531.8329375;1685696531.8439405;1685696532.5982306;1685696533.0993428;1685696536.0830185;1685696536.0860212;[];[];[]
