subj;trial;block;prior;kappa;ct;delay;fix;keypressed;R;T_Angle;resp_mod;choice_x;choice_y;init_resp_angle;choiceAngle;choiceR;RT;MT;ts_b;ts_f;ts_p;ts_d;ts_r;ts_e;m_pos_x;m_pos_y;m_clock
S09;0;0;0;1;False;1000;True;;8;-124.50894866911172;drag;L;-5.2441397;-6.0661945;-130.84;8.02;2.5338809000095353;2.5339513000799343;1685700806.0189004;1685700806.0279007;1685700806.7825255;1685700807.4169755;1685700808.3978896;1685700810.9318388;[0.0, 0.0, 0.0, 0.0, 0.0, 0.0, 0.0, 0.0, 0.0, 0.0, 0.0, 0.0, 0.0, 0.0, 0.0, 0.0, 0.0, 0.0, 0.0, 0.0, 0.0, 0.0, 0.0, 0.0, 0.0, 0.0, 0.0, 0.0, 0.0, 0.0, 0.0, 0.0, 0.0, 0.0, 0.0, 0.0, 0.0, 0.0, 0.0, 0.0, 0.0, 0.0, 0.0, 0.0, 0.0, 0.0, 0.0, 0.0, 0.0, 0.0, 0.0, 0.0, 0.0, 0.0, 0.0, 0.0, 0.0, 0.0, 0.0, 0.0, 0.0, 0.0, 0.0, 0.0, 0.0, 0.0, 0.0, 0.0, 0.0, 0.0, 0.0, -0.2551203, -0.48189393, -0.6803208, -1.0488279, -1.7008021, -2.0409625, -2.4094696, -2.57955, -2.8063235, -3.0330973, -3.316564, -3.6283777, -4.081925, -4.252005, -4.365392, -4.422086, -4.478779, -4.563819, -4.733899, -4.960673, -5.2441397, -5.3575263, -5.4709134, -5.8394203, -6.321315, -6.9165955, -7.3701425, -7.483529, -7.5685697, -7.6252627, -7.6536093, -7.6536093, -7.6252627, -7.540222, -7.3984895, -7.285102, -7.143369, -7.0583286, -7.0016356, -6.9165955, -6.8599014, -6.8032084, -6.7465153, -6.7181687, -6.633128, -6.5764346, -6.5197415, -6.4063544, -6.321315, -6.2079277, -6.1228876, -6.037847, -5.981154, -5.9528074, -5.924461, -5.896114, -5.8677673, -5.811074, -5.75438, -5.7260337, -5.66934, -5.66934, -5.6409936, -5.5843005, -5.4992604, -5.4425664, -5.41422, -5.3575263, -5.32918, -5.32918, -5.300833, -5.2724867, -5.2724867, -5.2724867, -5.2724867, -5.2441397, -5.2441397, -5.2441397, -5.2441397, -5.2441397];[0.0, 0.0, 0.0, 0.0, 0.0, 0.0, 0.0, 0.0, 0.0, 0.0, 0.0, 0.0, 0.0, 0.0, 0.0, 0.0, 0.0, 0.0, 0.0, 0.0, 0.0, 0.0, 0.0, 0.0, 0.0, 0.0, 0.0, 0.0, 0.0, 0.0, 0.0, 0.0, 0.0, 0.0, 0.0, 0.0, 0.0, 0.0, 0.0, 0.0, 0.0, 0.0, 0.0, 0.0, 0.0, 0.0, 0.0, 0.0, 0.0, 0.0, 0.0, 0.0, 0.0, 0.0, 0.0, 0.0, 0.0, 0.0, 0.0, 0.0, 0.0, 0.0, 0.0, 0.0, 0.0, 0.0, 0.0, 0.0, 0.0, 0.0, 0.0, -0.9921345, -1.7008021, -2.3527763, -3.316564, -4.620512, -5.1591, -5.612647, -5.782727, -5.981154, -6.1228876, -6.292968, -6.434701, -6.6047816, -6.6614747, -6.6898212, -6.7181687, -6.7181687, -6.7465153, -6.7465153, -6.7465153, -6.6898212, -6.6614747, -6.633128, -6.7181687, -6.9165955, -7.2000623, -7.3984895, -7.426836, -7.4551826, -7.4551826, -7.3984895, -7.228409, -7.0583286, -6.9165955, -6.7465153, -6.6614747, -6.6047816, -6.5764346, -6.5764346, -6.5197415, -6.5197415, -6.5197415, -6.491395, -6.491395, -6.4630475, -6.434701, -6.378008, -6.3496614, -6.321315, -6.292968, -6.2362742, -6.2079277, -6.2079277, -6.1795807, -6.1795807, -6.151234, -6.1228876, -6.094541, -6.0661945, -6.0661945, -6.037847, -6.0095005, -6.0095005, -5.981154, -5.9528074, -5.924461, -5.924461, -5.896114, -5.896114, -5.896114, -5.896114, -5.896114, -5.896114, -5.896114, -5.896114, -5.9528074, -5.9528074, -5.981154, -6.037847, -6.0661945];[0.006267100106924772, 0.019365200074389577, 0.035691300057806075, 0.05404320009984076, 0.06902680010534823, 0.0865408000536263, 0.10325200005900115, 0.12023200001567602, 0.13613060000352561, 0.15335750009398907, 0.16912229999434203, 0.19033330003730953, 0.2162916000233963, 0.23788950010202825, 0.252013000077568, 0.2695765000535175, 0.2853190000168979, 0.3036310001043603, 0.3190316000254825, 0.33831060002557933, 0.3524465000955388, 0.36980720004066825, 0.3861797000281513, 0.40290700003970414, 0.4190135000972077, 0.4372831000946462, 0.45190179999917746, 0.47059340006671846, 0.4851115000201389, 0.5034003000473604, 0.518718000035733, 0.5372246000915766, 0.5512460001045838, 0.570915500051342, 0.5856457001063973, 0.6035618000896648, 0.6191113000968471, 0.6371206000912935, 0.6523776000831276, 0.6707631000317633, 0.6854007000802085, 0.7035842000041157, 0.7186453000176698, 0.737689100089483, 0.7517888000002131, 0.76919560006354, 0.7861707000993192, 0.8042821000562981, 0.8189493000973016, 0.8367199000203982, 0.8517576000886038, 0.8691361000528559, 0.8859543000580743, 0.9039009000407532, 0.9180117000360042, 0.9371757000917569, 0.9523536000633612, 0.9699462000280619, 0.9860068000853062, 1.0035510000307113, 1.0182508000871167, 1.0372972000623122, 1.0522450000280514, 1.0705192000605166, 1.0853912000311539, 1.1031882000388578, 1.1188409000169486, 1.1357511000242084, 1.152172000030987, 1.1691029000794515, 1.1851660000393167, 1.2063116000499576, 1.2192527001025155, 1.2360650000628084, 1.2527550000231713, 1.2689999000867829, 1.2853463001083583, 1.3043518000049517, 1.3183704999973997, 1.3387003000825644, 1.353201900026761, 1.3699863000074401, 1.3858638000674546, 1.4019509000936523, 1.4181806000415236, 1.437164600007236, 1.4512475000228733, 1.4693435000954196, 1.4853833999950439, 1.5012237000046298, 1.518252000096254, 1.5354920000536367, 1.5514139001024887, 1.5679246000945568, 1.5848766000708565, 1.6022484001005068, 1.6179841000121087, 1.6357014999957755, 1.6540034000063315, 1.66827570006717, 1.6854935000883415, 1.7026730000507087, 1.7187150000827387, 1.734732300043106, 1.7509830000344664, 1.7691387000959367, 1.786323800100945, 1.801067000022158, 1.818886800087057, 1.8356946000130847, 1.8524729000637308, 1.8693026000401005, 1.88511620007921, 1.901784000103362, 1.9175285000819713, 1.9365425000432879, 1.9524507001042366, 1.9687418000539765, 1.9836554999928921, 2.001817800104618, 2.017918400000781, 2.035420900094323, 2.053313900018111, 2.0683337000664324, 2.083542100037448, 2.1015299001010135, 2.11826540005859, 2.1354995000874624, 2.151515100034885, 2.1678921000566334, 2.1855827000690624, 2.202727199997753, 2.217260100063868, 2.2380977000575513, 2.2523430000292137, 2.2708478000713512, 2.285550400032662, 2.3015071999980137, 2.3175925000105053, 2.3341007000999525, 2.3504718000767753, 2.368175800074823, 2.3860516001004726, 2.4020766000030562, 2.4180578000377864, 2.435693500097841, 2.4546109000220895, 2.468568400014192, 2.485110600013286, 2.5049769000615925, 2.517120800097473]
S09;1;0;0;1;False;3000;True;;8;-18.097713295550914;drag;L;7.143369;-2.2677362;-17.61;7.49;1.797467999975197;1.7975923999911174;1685700811.6841466;1685700811.6945953;1685700812.4474068;1685700812.9485905;1685700815.9507036;1685700817.7481172;[0.0, 0.0, 0.0, 0.0, 0.0, 0.0, 0.0, 0.0, 0.0, 0.0, 0.0, 0.0, 0.0, 0.0, 0.0, 0.0, 0.0, 0.0, 0.0, 0.0, 0.0, 0.0, 0.0, 0.0, 0.0, 0.0, 0.0, 0.0, 0.0, 0.0, 1.2189082, 2.211043, 2.7212832, 3.2882173, 3.8551514, 4.5071254, 4.818939, 4.960673, 5.1024065, 5.2441397, 5.3858733, 5.6409936, 6.0095005, 6.2079277, 6.3496614, 6.4063544, 6.491395, 6.5197415, 6.633128, 6.7181687, 6.8032084, 6.9165955, 7.2000623, 8.957558, 10.204813, 10.289852, 10.289852, 10.3182, 10.3182, 10.3182, 10.3182, 10.3182, 10.3182, 10.261506, 10.176466, 10.091426, 10.034732, 10.006386, 9.949693, 9.949693, 9.779612, 9.297718, 8.730784, 8.560703, 8.475664, 8.447317, 8.418971, 8.390623, 8.362277, 8.362277, 8.362277, 8.362277, 8.362277, 8.305584, 8.24889, 8.16385, 8.135503, 8.107157, 8.050464, 7.99377, 7.880383, 7.681956, 7.540222, 7.4551826, 7.3701425, 7.313449, 7.2567554, 7.2567554, 7.228409, 7.228409, 7.1717157, 7.1717157, 7.1717157, 7.1717157, 7.143369, 7.143369, 7.143369];[0.0, 0.0, 0.0, 0.0, 0.0, 0.0, 0.0, 0.0, 0.0, 0.0, 0.0, 0.0, 0.0, 0.0, 0.0, 0.0, 0.0, 0.0, 0.0, 0.0, 0.0, 0.0, 0.0, 0.0, 0.0, 0.0, 0.0, 0.0, 0.0, 0.0, 0.39685383, 0.59528077, 0.6236274, 0.65197414, 0.65197414, 0.6236274, 0.6236274, 0.6236274, 0.6236274, 0.6236274, 0.6236274, 0.6236274, 0.4535472, 0.3118137, 0.2267736, 0.14173351, 0.0566934, -0.0566934, -0.42520052, -0.76536095, -1.0488279, -1.3606416, -1.7291489, -3.2882173, -4.2803516, -4.365392, -4.365392, -4.3937387, -4.3937387, -4.3937387, -4.3937387, -4.3937387, -4.3937387, -4.3937387, -4.365392, -4.337045, -4.3086987, -4.3086987, -4.2803516, -4.2803516, -4.166965, -3.8551514, -3.4299507, -3.2882173, -3.2031772, -3.146484, -3.1181371, -3.1181371, -3.0897903, -3.0897903, -3.0330973, -3.0330973, -3.0047503, -2.8913634, -2.7496302, -2.6362433, -2.6078966, -2.57955, -2.5512033, -2.4945097, -2.4378164, -2.3527763, -2.2960827, -2.2677362, -2.2677362, -2.2677362, -2.2677362, -2.2677362, -2.2677362, -2.2677362, -2.2677362, -2.2677362, -2.2677362, -2.2677362, -2.2677362, -2.2677362, -2.2677362];[0.005568700027652085, 0.032386999926529825, 0.050945600029081106, 0.06495589995756745, 0.08529660000931472, 0.09979369991924614, 0.11649439996108413, 0.1336058999877423, 0.15095339994877577, 0.16630899999290705, 0.18484459992032498, 0.1990862999809906, 0.2170595999341458, 0.23333630000706762, 0.251124499947764, 0.2666975000174716, 0.2841389999957755, 0.2998547999886796, 0.3172976999776438, 0.3337982000084594, 0.35023240000009537, 0.3666735999286175, 0.3849422999192029, 0.39980469993315637, 0.41797650000080466, 0.4331466000294313, 0.4501548999687657, 0.4669584999792278, 0.48411229997873306, 0.5001094000181183, 0.5166172999888659, 0.5339194999542087, 0.5489101000130177, 0.5668633999302983, 0.5821803000289947, 0.5990942999487743, 0.6187140999827534, 0.6321382999885827, 0.6510075000114739, 0.6691087000072002, 0.6821662000147626, 0.6980008999817073, 0.7173812999390066, 0.7318711000261828, 0.7525338999694213, 0.765955499955453, 0.7833371999440715, 0.7979927000124007, 0.8160436999751255, 0.8335310999536887, 0.8491716999560595, 0.8642448999453336, 0.8832692999858409, 0.8980358999688178, 0.9152526999823749, 0.9345636999933049, 0.9491551999235526, 0.9667520999209955, 0.9827853000024334, 0.9983841999201104, 1.0155716999433935, 1.0315616999287158, 1.0500794999534264, 1.065792299923487, 1.0831996999913827, 1.0991862999508157, 1.1161811000201851, 1.1320674000307918, 1.1505232999334112, 1.1662072000326589, 1.1826485999627039, 1.1994392999913543, 1.2165506000164896, 1.2330368999391794, 1.2508390999864787, 1.2657495000166818, 1.2852528999792412, 1.2984590999549255, 1.3161611999385059, 1.3332403999520466, 1.350479600019753, 1.3662451999261975, 1.3829824000131339, 1.39811239996925, 1.4175800000084564, 1.4334819000214338, 1.449920199927874, 1.467023800010793, 1.4831380000105128, 1.4996076999232173, 1.5163025999208912, 1.5315837999805808, 1.5489974999800324, 1.5660035000182688, 1.5838738000020385, 1.6015436999732628, 1.615412599989213, 1.6320774999912828, 1.6517195999622345, 1.6650863999966532, 1.6868104999884963, 1.6986006000079215, 1.715362099930644, 1.7324425999540836, 1.7498878999613225, 1.7651378000155091, 1.7826853999868035]
S09;2;0;0;1;False;1000;True;;8;147.76889195596883;drag;L;-6.094541;3.2315238;152.07;6.9;1.3158838000381365;1.3161255999002606;1685700818.5978694;1685700818.6107113;1685700819.3667636;1685700819.86637;1685700820.8482268;1685700822.1649356;[-0.8220543, -2.8063235, -4.648859, -6.378008, -6.888248, -7.086675, -7.143369, -7.1717157, -7.1717157, -7.228409, -7.285102, -7.5685697, -7.880383, -8.220544, -8.532357, -8.7591305, -8.844172, -8.900865, -8.900865, -8.900865, -8.872518, -8.730784, -8.58905, -8.390623, -8.277237, -8.050464, -7.880383, -7.7669964, -7.681956, -7.596916, -7.540222, -7.426836, -7.313449, -7.228409, -7.143369, -7.086675, -7.029982, -7.0016356, -6.9732885, -6.9165955, -6.8599014, -6.831555, -6.774862, -6.7465153, -6.7181687, -6.6614747, -6.633128, -6.548088, -6.491395, -6.4630475, -6.434701, -6.434701, -6.434701, -6.378008, -6.3496614, -6.3496614, -6.321315, -6.292968, -6.292968, -6.292968, -6.264621, -6.2362742, -6.2079277, -6.2079277, -6.1795807, -6.1795807, -6.151234, -6.1228876, -6.1228876, -6.1228876, -6.1228876, -6.1228876, -6.1228876, -6.1228876, -6.1228876, -6.1228876, -6.1228876, -6.094541, -6.094541];[0.56693405, 1.7008021, 2.57955, 3.514991, 3.8268046, 3.9401915, 3.996885, 3.996885, 3.996885, 4.025232, 4.1386185, 4.5071254, 4.818939, 5.0740595, 5.32918, 5.527607, 5.5843005, 5.612647, 5.612647, 5.612647, 5.527607, 5.32918, 5.1024065, 4.762246, 4.563819, 4.2236586, 4.025232, 3.8551514, 3.798458, 3.713418, 3.6567245, 3.5433376, 3.4866443, 3.4299507, 3.4016042, 3.3449106, 3.316564, 3.316564, 3.316564, 3.2882173, 3.2598708, 3.2315238, 3.2315238, 3.2031772, 3.1748307, 3.146484, 3.1181371, 3.0897903, 3.0330973, 3.0047503, 3.0047503, 2.9764037, 2.9764037, 2.9764037, 2.9764037, 2.9764037, 2.9764037, 2.9764037, 2.9764037, 2.9764037, 2.9764037, 3.0047503, 3.0047503, 3.0330973, 3.0614438, 3.0614438, 3.0897903, 3.0897903, 3.1181371, 3.1181371, 3.146484, 3.1748307, 3.1748307, 3.2031772, 3.2031772, 3.2315238, 3.2315238, 3.2315238, 3.2315238];[0.0036124999169260263, 0.01785909989848733, 0.03310479992069304, 0.05344129994045943, 0.06721609993837774, 0.08350109995808452, 0.10189589997753501, 0.11683179996907711, 0.1333798998966813, 0.1512422999367118, 0.16650919988751411, 0.18754339998122305, 0.20117729995399714, 0.21758689999114722, 0.23477499990258366, 0.2507433999562636, 0.26808229996822774, 0.2846196999307722, 0.2999907999765128, 0.3187872999114916, 0.333712299936451, 0.3517267999704927, 0.3662257998948917, 0.3837814999278635, 0.40177969995420426, 0.4187953999498859, 0.4339143999386579, 0.45388249994721264, 0.4678185998927802, 0.48469650000333786, 0.5015409999759868, 0.5186910999473184, 0.5342863999539986, 0.5521947999950498, 0.5663534998893738, 0.58771159988828, 0.6012007999233902, 0.6179678998887539, 0.6332323999376968, 0.6507004000013694, 0.6674239999847487, 0.6860833999235183, 0.700039399904199, 0.7203604999231175, 0.73397009994369, 0.7503715999191627, 0.7672770998906344, 0.7839089999906719, 0.8001211999217048, 0.8186100999591872, 0.8337177999783307, 0.8509966999990866, 0.8667622999055311, 0.8851820999989286, 0.9006189999636263, 0.9183182999258861, 0.9340004998957738, 0.9516276998911053, 0.9666366999736056, 0.9858399999793619, 0.9999564999016002, 1.0175177999772131, 1.0340370999183506, 1.0525900999782607, 1.066776999970898, 1.0852184999966994, 1.1025399999925867, 1.1182620999170467, 1.1355496998876333, 1.1505971999140456, 1.1676609999267384, 1.1855194999370724, 1.2003992999671027, 1.2183514999924228, 1.2334561999887228, 1.251647499972023, 1.2674972999375314, 1.2843081000028178, 1.3007091999752447]
S09;3;0;0;1;False;3000;True;;8;-126.00778138441522;drag;L;-4.9890194;-5.782727;-130.79;7.64;1.6652781999437138;1.665360699989833;1685700823.028346;1685700823.043726;1685700823.7985768;1685700824.298872;1685700827.2989879;1685700828.9640527;[0.0, 0.0, 0.0, 0.0, 0.0, 0.0, 0.0, 0.0, 0.0, 0.0, 0.0, 0.0, 0.0, 0.0, 0.0, 0.0, 0.0, 0.0, 0.0, 0.0, 0.0, 0.0, 0.0, 0.0, 0.0, 0.0, 0.0, 0.0, 0.0, 0.0, 0.0, 0.0, 0.0, 0.0, 0.0, 0.0, 0.0, 0.0, 0.0, 0.0, 0.0, 0.0, 0.0, 0.0, 0.0, 0.0, 0.0, 0.0, -0.19842692, -0.4535472, -0.6236274, -0.96378785, -1.2472548, -1.5590686, -2.0409625, -2.2960827, -2.57955, -2.6929367, -2.8063235, -2.9197102, -3.0614438, -3.146484, -3.2315238, -3.2882173, -3.3732576, -3.4016042, -3.4582977, -3.6000311, -3.7417645, -3.9401915, -4.0535784, -4.166965, -4.3086987, -4.5354724, -4.620512, -4.6772056, -4.733899, -4.733899, -4.762246, -4.7905927, -4.7905927, -4.7905927, -4.7905927, -4.7905927, -4.7905927, -4.818939, -4.818939, -4.847286, -4.847286, -4.847286, -4.875633, -4.875633, -4.9039793, -4.9039793, -4.932326, -4.932326, -4.960673, -4.9890194, -4.9890194, -4.9890194];[0.0, 0.0, 0.0, 0.0, 0.0, 0.0, 0.0, 0.0, 0.0, 0.0, 0.0, 0.0, 0.0, 0.0, 0.0, 0.0, 0.0, 0.0, 0.0, 0.0, 0.0, 0.0, 0.0, 0.0, 0.0, 0.0, 0.0, 0.0, 0.0, 0.0, 0.0, 0.0, 0.0, 0.0, 0.0, 0.0, 0.0, 0.0, 0.0, 0.0, 0.0, 0.0, 0.0, 0.0, 0.0, 0.0, 0.0, 0.0, -0.4535472, -0.85040104, -1.2189082, -1.7291489, -2.1543493, -2.5228565, -3.0897903, -3.3732576, -3.6850712, -3.798458, -3.911845, -4.0535784, -4.252005, -4.3937387, -4.5921655, -4.648859, -4.762246, -4.7905927, -4.847286, -4.932326, -5.017366, -5.130753, -5.1874466, -5.2724867, -5.3858733, -5.5559535, -5.612647, -5.66934, -5.66934, -5.697687, -5.697687, -5.7260337, -5.7260337, -5.7260337, -5.7260337, -5.7260337, -5.7260337, -5.7260337, -5.7260337, -5.7260337, -5.7260337, -5.7260337, -5.7260337, -5.7260337, -5.7260337, -5.7260337, -5.7260337, -5.7260337, -5.75438, -5.782727, -5.782727, -5.782727];[0.004037300008349121, 0.017181399976834655, 0.03421810001600534, 0.04960690008010715, 0.06879559997469187, 0.08415750006679446, 0.10183639999013394, 0.11730689997784793, 0.13474790006875992, 0.15046959999017417, 0.1686547000426799, 0.18384990002959967, 0.20038719999138266, 0.2175055000698194, 0.2347721999976784, 0.24986680003348738, 0.2670965000288561, 0.2840406000614166, 0.30205439997371286, 0.3166952000465244, 0.33383670006878674, 0.3488048000726849, 0.36757400003261864, 0.38345429999753833, 0.40178469999227673, 0.41706640005577356, 0.4344567999942228, 0.45009509997908026, 0.4682012000121176, 0.4846104000462219, 0.5026419999776408, 0.5181124000810087, 0.5345723000355065, 0.5515895000426099, 0.5682897000806406, 0.5843511000275612, 0.601730199996382, 0.6166011000750586, 0.6359636000124738, 0.6510111000388861, 0.6682320000836626, 0.6821265000617132, 0.7006181000033394, 0.717424500035122, 0.7351582000264898, 0.7506559999892488, 0.7679134000791237, 0.783410600037314, 0.8013915000483394, 0.8156374000245705, 0.8338304000208154, 0.8507577000418678, 0.8663503000279889, 0.8846633000066504, 0.899920399999246, 0.9158551000291482, 0.9352981999982148, 0.9492879000026733, 0.9670096000190824, 0.9832806000486016, 1.0004099999787286, 1.01596910005901, 1.0336881000548601, 1.0487408000044525, 1.0673548000631854, 1.0828846000367776, 1.1013771999860182, 1.1175079999957234, 1.1330774000380188, 1.1531367000425234, 1.1675203000195324, 1.1834984000306576, 1.200332900043577, 1.2162474000360817, 1.234561700024642, 1.2511353000300005, 1.2658750000409782, 1.2829519000370055, 1.2998553999932483, 1.3167602000758052, 1.3347644000314176, 1.3499427000060678, 1.3673495000693947, 1.3841475000372157, 1.4019199999747798, 1.4180160000687465, 1.43314029998146, 1.4502552000340074, 1.4674845000263304, 1.4833039999939501, 1.5002558000851423, 1.5169629000592977, 1.5334923000773415, 1.5501511000329629, 1.5672356000868604, 1.58353740000166, 1.6015596999786794, 1.616375199984759, 1.6346830000402406, 1.649526400025934]
S09;4;0;0;1;False;3000;True;;8;9.991156280475312;drag;L;6.264621;1.7291489;15.43;6.5;2.015254499972798;2.015330700087361;1685700829.7267008;1685700829.7439435;1685700830.4982808;1685700830.999524;1685700833.997799;1685700836.0133836;[0.0, 0.0, 0.0, 0.0, 0.0, 0.0, 0.0, 0.0, 0.0, 0.0, 0.0, 0.0, 0.0, 0.0, 0.0, 0.0, 0.0, 0.0, 0.0, 0.0, 0.0, 0.0, 0.0, 0.0, 0.0, 0.0, 0.0, 0.0, 0.0, 0.0, 0.0, 0.0, 0.0, 0.0, 0.0, 0.0, 0.0, 0.0, 0.0, 0.0, 0.0, 0.0, 0.0, 0.0, 0.0, 0.0, 0.0, 0.0, 0.0, 0.0, 0.0, 0.0, 0.0, 0.0, 0.0, 0.0, 0.0, 0.0, 0.0, 0.0, 0.0, 0.0, 0.0, 0.0, 0.0, 0.0, 0.0, 0.0, 0.0, 0.0, 0.0, 0.0, 0.0, 0.42520052, 1.0771747, 1.2189082, 1.6724553, 1.984269, 2.4094696, 2.66459, 3.0330973, 3.2598708, 3.4866443, 3.6850712, 3.798458, 3.8551514, 3.911845, 3.9401915, 3.968538, 3.968538, 4.025232, 4.110272, 4.2803516, 4.478779, 4.7055526, 4.847286, 5.1591, 5.300833, 5.4992604, 5.527607, 5.612647, 5.6409936, 5.7260337, 5.811074, 5.924461, 6.0095005, 6.037847, 6.0661945, 6.094541, 6.1228876, 6.1228876, 6.151234, 6.1795807, 6.1795807, 6.2079277, 6.2079277, 6.2362742, 6.2362742, 6.264621, 6.264621, 6.264621];[0.0, 0.0, 0.0, 0.0, 0.0, 0.0, 0.0, 0.0, 0.0, 0.0, 0.0, 0.0, 0.0, 0.0, 0.0, 0.0, 0.0, 0.0, 0.0, 0.0, 0.0, 0.0, 0.0, 0.0, 0.0, 0.0, 0.0, 0.0, 0.0, 0.0, 0.0, 0.0, 0.0, 0.0, 0.0, 0.0, 0.0, 0.0, 0.0, 0.0, 0.0, 0.0, 0.0, 0.0, 0.0, 0.0, 0.0, 0.0, 0.0, 0.0, 0.0, 0.0, 0.0, 0.0, 0.0, 0.0, 0.0, 0.0, 0.0, 0.0, 0.0, 0.0, 0.0, 0.0, 0.0, 0.0, 0.0, 0.0, 0.0, 0.0, 0.0, 0.0, 0.0, 0.1133868, 0.2551203, 0.28346702, 0.3401604, 0.36850712, 0.42520052, 0.48189393, 0.53858733, 0.56693405, 0.6236274, 0.6803208, 0.73701423, 0.73701423, 0.76536095, 0.76536095, 0.76536095, 0.76536095, 0.76536095, 0.8220543, 0.9070944, 0.9921345, 1.0488279, 1.1055214, 1.1055214, 1.1055214, 1.1338681, 1.1338681, 1.1622148, 1.1622148, 1.1905615, 1.2189082, 1.2756016, 1.3039483, 1.332295, 1.3606416, 1.3889884, 1.417335, 1.4740285, 1.5023751, 1.5307219, 1.5590686, 1.5874153, 1.6157619, 1.6441087, 1.7008021, 1.7291489, 1.7291489, 1.7291489];[0.003976900014095008, 0.01759830000810325, 0.03592579998075962, 0.051396200084127486, 0.06896380009129643, 0.0842832000926137, 0.10270130005665123, 0.11777640006039292, 0.13515210000332445, 0.15061920008156449, 0.16777810000348836, 0.18365550006274134, 0.20217880001291633, 0.21865070005878806, 0.23596100008580834, 0.25168059999123216, 0.26844210003037006, 0.28516070009209216, 0.3015511999838054, 0.31670359999407083, 0.3352195000043139, 0.3510563999880105, 0.369479599990882, 0.38450729998294264, 0.40227930003311485, 0.41809330007527024, 0.43518760008737445, 0.4514907000120729, 0.4693878000834957, 0.48452569998335093, 0.503407199983485, 0.5174899999983609, 0.5349359000101686, 0.5512116000754759, 0.56833630008623, 0.5835043999832124, 0.6022719000466168, 0.618311700061895, 0.6350358000490814, 0.651537400088273, 0.6677379000466317, 0.683702600072138, 0.7026786000933498, 0.7178947000065818, 0.7355907000601292, 0.7519072000868618, 0.768636199994944, 0.7838471999857575, 0.8030304000712931, 0.8175232000648975, 0.8364865999901667, 0.8505005000624806, 0.8692048999946564, 0.8852119999937713, 0.9035814000526443, 0.917724100057967, 0.9370007000397891, 0.9505578000098467, 0.9690017000539228, 0.986440800013952, 1.0014722000341862, 1.0179731000680476, 1.0354276000289246, 1.051779100089334, 1.0685220999876037, 1.083565599983558, 1.1023351000621915, 1.1177805000916123, 1.1340701000299305, 1.1501753000775352, 1.1669871000340208, 1.1834707000525668, 1.2016650000587106, 1.2176434000721201, 1.2373595000244677, 1.2493963000597432, 1.2670839000493288, 1.2829614999936894, 1.3011776000494137, 1.316136799985543, 1.3353042000671849, 1.3499295000219718, 1.3672797000035644, 1.3854428000049666, 1.4013168000383303, 1.417611200013198, 1.4342179000377655, 1.4504828000208363, 1.467321600066498, 1.4823479000478983, 1.5004104999825358, 1.5171218999894336, 1.534895500051789, 1.5517092000227422, 1.567283899988979, 1.5837660999968648, 1.6014994999859482, 1.616507500060834, 1.6375040999846533, 1.649857599986717, 1.6688014999963343, 1.6834060000255704, 1.701432100031525, 1.7175844000885263, 1.7354575000936165, 1.751421399996616, 1.769726900034584, 1.7827224000357091, 1.800662000081502, 1.816834400058724, 1.834379900014028, 1.8516720000188798, 1.8695888000074774, 1.8833471999969333, 1.8999726000474766, 1.9165368999820203, 1.9354628000874072, 1.9514803000492975, 1.9681935000699013, 1.9842139000538737, 2.001197600038722]
S09;5;0;0;1;False;1000;True;;8;-125.16112251659034;drag;L;-4.422086;-6.0095005;-126.35;7.46;2.38295829994604;2.3831300999736413;1685700836.8763492;1685700836.8924572;1685700837.6482408;1685700838.1491103;1685700839.131384;1685700841.5146618;[0.0, 0.0, 0.0, 0.0, 0.0, 0.0, 0.0, 0.0, 0.0, 0.0, 0.0, 0.0, 0.0, 0.0, 0.0, 0.0, 0.0, 0.0, 0.0, 0.0, 0.0, 0.0, 0.0, 0.0, 0.0, 0.0, 0.0, 0.0, 0.0, 0.0, 0.0, 0.0, 0.0, 0.0, 0.0, 0.0, 0.0, 0.0, 0.0, 0.0, 0.0, 0.0, 0.0, 0.0, 0.0, 0.0, 0.0, 0.0, 0.0, 0.0, 0.0, 0.0, 0.0, 0.0, 0.0, 0.0, 0.0, -0.0283467, -0.0566934, -0.0850401, -0.1133868, -0.14173351, -0.1700802, -0.1700802, -0.19842692, -0.19842692, -0.2267736, -0.2267736, -0.2267736, -0.2267736, -0.2267736, -0.2267736, -0.2267736, -0.2267736, -0.28346702, -0.36850712, -0.53858733, -1.332295, -2.57955, -3.146484, -3.5716846, -3.9401915, -4.081925, -4.2236586, -4.2803516, -4.3086987, -4.365392, -4.3937387, -4.4504323, -4.5071254, -4.563819, -4.5921655, -4.620512, -4.648859, -4.6772056, -4.6772056, -4.7055526, -4.733899, -4.7905927, -5.045713, -5.32918, -5.4709134, -5.5559535, -5.612647, -5.6409936, -5.66934, -5.697687, -5.7260337, -5.7260337, -5.7260337, -5.7260337, -5.697687, -5.697687, -5.66934, -5.6409936, -5.527607, -5.4709134, -5.3575263, -5.130753, -5.045713, -4.960673, -4.9039793, -4.847286, -4.7905927, -4.762246, -4.733899, -4.7055526, -4.6772056, -4.648859, -4.620512, -4.5921655, -4.5354724, -4.5354724, -4.5071254, -4.5071254, -4.478779, -4.4504323, -4.422086, -4.422086, -4.422086, -4.422086, -4.422086, -4.422086];[0.0, 0.0, 0.0, 0.0, 0.0, 0.0, 0.0, 0.0, 0.0, 0.0, 0.0, 0.0, 0.0, 0.0, 0.0, 0.0, 0.0, 0.0, 0.0, 0.0, 0.0, 0.0, 0.0, 0.0, 0.0, 0.0, 0.0, 0.0, 0.0, 0.0, 0.0, 0.0, 0.0, 0.0, 0.0, 0.0, 0.0, 0.0, 0.0, 0.0, 0.0, 0.0, 0.0, 0.0, 0.0, 0.0, 0.0, 0.0, 0.0, 0.0, 0.0, 0.0, 0.0, 0.0, 0.0, 0.0, -0.0283467, -0.0566934, -0.0566934, -0.1133868, -0.1700802, -0.2267736, -0.2551203, -0.28346702, -0.28346702, -0.3118137, -0.3118137, -0.36850712, -0.36850712, -0.36850712, -0.36850712, -0.36850712, -0.36850712, -0.36850712, -0.42520052, -0.6236274, -0.85040104, -2.012616, -3.6567245, -4.422086, -4.960673, -5.3575263, -5.527607, -5.66934, -5.7260337, -5.75438, -5.811074, -5.811074, -5.8677673, -5.896114, -5.924461, -5.9528074, -5.9528074, -5.9528074, -5.9528074, -5.9528074, -5.981154, -6.0095005, -6.094541, -6.321315, -6.548088, -6.6898212, -6.7465153, -6.774862, -6.774862, -6.8032084, -6.8032084, -6.8032084, -6.8032084, -6.8032084, -6.8032084, -6.8032084, -6.774862, -6.7465153, -6.7181687, -6.6614747, -6.6047816, -6.5197415, -6.434701, -6.3496614, -6.3496614, -6.292968, -6.292968, -6.264621, -6.264621, -6.264621, -6.2362742, -6.2362742, -6.2362742, -6.1795807, -6.1795807, -6.151234, -6.151234, -6.1228876, -6.1228876, -6.0661945, -6.037847, -6.037847, -6.0095005, -6.0095005, -6.0095005, -6.0095005, -6.0095005];[0.004437500028871, 0.017737300018779933, 0.033331000013276935, 0.05020419997163117, 0.06731279997620732, 0.08604149997700006, 0.10022030002437532, 0.1178402000805363, 0.13344210002105683, 0.15087460004724562, 0.16764470003545284, 0.18521300004795194, 0.2002951999893412, 0.21838650002609938, 0.23343730007763952, 0.25245040003210306, 0.2668721000663936, 0.28477630007546395, 0.30174600007012486, 0.31763339997269213, 0.3334701000712812, 0.35198480007238686, 0.366836000001058, 0.38440750003792346, 0.3999275000533089, 0.4172651000553742, 0.43357650004327297, 0.4501643000403419, 0.4661576000507921, 0.4841097000753507, 0.5006690999725834, 0.5174811000470072, 0.5336186999920756, 0.5510645000031218, 0.5657738000154495, 0.583819100051187, 0.5985990000190213, 0.6168510999996215, 0.6321713000070304, 0.6487644000444561, 0.66590670007281, 0.6820171000435948, 0.6980745000764728, 0.7155285000335425, 0.7315494000213221, 0.7490437000524253, 0.7658349999692291, 0.7820990000618622, 0.7984000999713317, 0.8154184999875724, 0.8321120999753475, 0.8486920000286773, 0.8647526999702677, 0.8842574000591412, 0.9001269000582397, 0.9169408000307158, 0.9345350000075996, 0.9515536000253633, 0.968862000037916, 0.9840587000362575, 1.0008613000391051, 1.0195207999786362, 1.0336973000084981, 1.0520759000210091, 1.0668305000290275, 1.0844217999838293, 1.1008450000081211, 1.1179715000325814, 1.133055799989961, 1.1513242999790236, 1.1676171000581235, 1.18485010007862, 1.2016802000580356, 1.2187299000797793, 1.2361058000242338, 1.2506174000445753, 1.267989700078033, 1.2866831000428647, 1.3006909000687301, 1.319787200074643, 1.3344640000723302, 1.3506969000445679, 1.3682220000773668, 1.3867543999804184, 1.4001096000429243, 1.4177014000015333, 1.4339010000694543, 1.450509799993597, 1.4671945000300184, 1.4846742000663653, 1.5021108000073582, 1.5184515999862924, 1.533111899974756, 1.5513512999750674, 1.566874700016342, 1.5844279000302777, 1.600303800078109, 1.6175125000299886, 1.6353669000091031, 1.650283000082709, 1.6669145000632852, 1.6867901000659913, 1.7013038999866694, 1.717497600009665, 1.733360700076446, 1.7490272000432014, 1.7677291000727564, 1.7845709000248462, 1.8010803000070155, 1.8185091000050306, 1.834040499990806, 1.8546419000485912, 1.8674315999960527, 1.8839934000279754, 1.9013830000767484, 1.9181559999706224, 1.9342860999749973, 1.951710700057447, 1.9668124000309035, 1.9849548999918625, 2.000536000006832, 2.0176569999894127, 2.033159099984914, 2.0510847000405192, 2.0667404000414535, 2.087356199976057, 2.0998427000595257, 2.1178801000351086, 2.1330277000088245, 2.1516502000158653, 2.1675149999791756, 2.1843308000825346, 2.1996877000201494, 2.2183290000539273, 2.232613499974832, 2.2511459999950603, 2.2669597000349313, 2.2838081000372767, 2.2990699000656605, 2.317583000054583, 2.333607100066729, 2.3524505000095814, 2.3670358000090346]
S09;6;0;0;1;False;1000;True;;8;-155.79300645742617;drag;L;-6.6047816;-3.0614438;-155.13;7.28;1.8669329000404105;1.8670073000248522;1685700842.2959368;1685700842.3090177;1685700843.0651815;1685700843.5657206;1685700844.5455182;1685700846.413339;[0.0, 0.0, 0.0, 0.0, 0.0, 0.0, 0.0, 0.0, 0.0, 0.0, 0.0, 0.0, 0.0, 0.0, 0.0, 0.0, 0.0, 0.0, 0.0, 0.0, 0.0, 0.0, 0.0, 0.0, 0.0, 0.0, 0.0, 0.0, 0.0, 0.0, 0.0, 0.0, 0.0, 0.0, 0.0, 0.0, 0.0, 0.0, 0.0, 0.0, 0.0, 0.0, 0.0, 0.0, 0.0, -0.0566934, -0.3118137, -0.79370767, -1.1338681, -1.5023751, -1.899229, -2.1543493, -2.3244295, -2.5228565, -2.6929367, -2.948057, -3.2598708, -3.4582977, -3.5716846, -3.6283777, -3.6850712, -3.770111, -3.8834982, -4.081925, -4.252005, -4.3937387, -4.5921655, -4.733899, -4.818939, -4.9039793, -4.960673, -5.017366, -5.045713, -5.0740595, -5.130753, -5.2441397, -5.32918, -5.4425664, -5.4992604, -5.527607, -5.5559535, -5.612647, -5.6409936, -5.7260337, -5.782727, -5.8677673, -5.924461, -5.9528074, -5.981154, -6.0095005, -6.037847, -6.0661945, -6.094541, -6.1228876, -6.151234, -6.1795807, -6.2362742, -6.264621, -6.292968, -6.321315, -6.321315, -6.378008, -6.4063544, -6.4063544, -6.434701, -6.434701, -6.4630475, -6.491395, -6.5197415, -6.548088, -6.5764346, -6.6047816];[0.0, 0.0, 0.0, 0.0, 0.0, 0.0, 0.0, 0.0, 0.0, 0.0, 0.0, 0.0, 0.0, 0.0, 0.0, 0.0, 0.0, 0.0, 0.0, 0.0, 0.0, 0.0, 0.0, 0.0, 0.0, 0.0, 0.0, 0.0, 0.0, 0.0, 0.0, 0.0, 0.0, 0.0, 0.0, 0.0, 0.0, 0.0, 0.0, 0.0, 0.0, 0.0, 0.0, 0.0, 0.0, -0.0566934, -0.2551203, -0.53858733, -0.6803208, -0.8220543, -0.96378785, -1.0488279, -1.1055214, -1.1622148, -1.1905615, -1.2756016, -1.3606416, -1.4456817, -1.5023751, -1.5023751, -1.5307219, -1.5590686, -1.5590686, -1.6157619, -1.6441087, -1.7008021, -1.7291489, -1.7858423, -1.7858423, -1.8425356, -1.8425356, -1.8708823, -1.899229, -1.899229, -1.9559225, -2.0409625, -2.1260026, -2.2393894, -2.2960827, -2.3244295, -2.3527763, -2.4094696, -2.4378164, -2.5228565, -2.6078966, -2.6929367, -2.7496302, -2.8063235, -2.83467, -2.83467, -2.8630168, -2.8913634, -2.948057, -2.948057, -2.948057, -2.9764037, -3.0047503, -3.0047503, -3.0330973, -3.0614438, -3.0614438, -3.0614438, -3.0614438, -3.0614438, -3.0614438, -3.0614438, -3.0614438, -3.0614438, -3.0614438, -3.0614438, -3.0614438, -3.0614438];[0.003725200076587498, 0.021335700061172247, 0.034974100068211555, 0.051854300079867244, 0.06910510000307113, 0.08756500005256385, 0.10273100004997104, 0.11966880003456026, 0.13583590008784086, 0.15228500007651746, 0.16875579999759793, 0.18751880002673715, 0.20120880007743835, 0.2205064999870956, 0.23640170006547123, 0.25209220009855926, 0.26805489999242127, 0.28541820007376373, 0.30174900009296834, 0.3201208000537008, 0.3370822999859229, 0.35313290008343756, 0.36936410004273057, 0.3874992000637576, 0.4034291000571102, 0.4204297000542283, 0.43668470007833093, 0.454389400081709, 0.4689216000260785, 0.4866785000776872, 0.5027525000041351, 0.5200301000149921, 0.5359477000311017, 0.553551800083369, 0.5694089999888092, 0.5873907000059262, 0.6021630000323057, 0.61988160002511, 0.6364233000203967, 0.6538913000840694, 0.6685048000654206, 0.6867384000215679, 0.7020351000828668, 0.7199416999937966, 0.7357837000163272, 0.7523914000485092, 0.7685198000399396, 0.7881619000108913, 0.8005868000909686, 0.8200431000441313, 0.835709200007841, 0.8518488000845537, 0.8678613000083715, 0.8851157000754029, 0.902083000051789, 0.9187953000655398, 0.9343449000734836, 0.9552399000385776, 0.9697828000644222, 0.98708120000083, 1.0022391000529751, 1.0196036000270396, 1.0355323000112548, 1.0528578000376, 1.0676651000976562, 1.0871472000144422, 1.1022459000814706, 1.1199041000800207, 1.1360988999949768, 1.1520065000513569, 1.1702403000090271, 1.1869337999960408, 1.2011158000677824, 1.2208577001001686, 1.2345575999934226, 1.251688600052148, 1.2688062000088394, 1.2858617000747472, 1.3019872000440955, 1.3193540000356734, 1.334599000052549, 1.3553044000873342, 1.3685002999845892, 1.3855271000647917, 1.4028659000759944, 1.4188542000483721, 1.43553590006195, 1.4525158000178635, 1.4686465000268072, 1.4872195000061765, 1.5029036999912933, 1.51824620005209, 1.5385021000402048, 1.5535301000345498, 1.5690159000223503, 1.5856816000305116, 1.6016376999905333, 1.6204446000047028, 1.6350241000764072, 1.652078100014478, 1.6700928000500426, 1.686167300096713, 1.7017205000156537, 1.7196534000104293, 1.7352523000445217, 1.7531810000073165, 1.7709221000550315, 1.785521800047718, 1.803253100020811, 1.8182836000341922, 1.834664500085637, 1.8535013000946492]
S09;7;0;0;1;False;3000;True;;8;-88.28913557096709;drag;L;0.3118137;-6.9165955;-87.42;6.92;1.9483606999274343;1.9484797000186518;1685700847.1647158;1685700847.1758294;1685700847.9329987;1685700848.4320843;1685700851.431522;1685700853.3794036;[0.0, 0.0, 0.0, 0.0, 0.0, 0.0, 0.0, 0.0, 0.0, 0.0, 0.0, 0.0, 0.0, 0.0, 0.0, 0.0, 0.0, 0.0, 0.0, 0.0, 0.0, 0.0, 0.0, 0.0, 0.0, 0.0, 0.0, 0.0, 0.0, 0.0, 0.0, 0.0, 0.0, 0.0, 0.0, 0.0, 0.0, -0.0283467, -0.0566934, -0.1133868, -0.1700802, -0.1700802, -0.19842692, -0.2267736, -0.2551203, -0.2551203, -0.28346702, -0.28346702, -0.28346702, -0.28346702, -0.28346702, -0.28346702, -0.3118137, -0.3401604, -0.3401604, -0.3401604, -0.3401604, -0.3401604, -0.36850712, -0.36850712, -0.36850712, -0.36850712, -0.36850712, -0.36850712, -0.3401604, -0.3401604, -0.3118137, -0.3118137, -0.28346702, -0.28346702, -0.28346702, -0.2551203, -0.2267736, -0.2267736, -0.2267736, -0.19842692, -0.19842692, -0.19842692, -0.19842692, -0.19842692, -0.1700802, -0.1700802, -0.1700802, -0.14173351, -0.1133868, -0.1133868, -0.0850401, -0.0850401, -0.0850401, -0.0566934, -0.0566934, -0.0283467, 0.0, 0.0, 0.0283467, 0.0283467, 0.0566934, 0.0566934, 0.0850401, 0.1133868, 0.1133868, 0.14173351, 0.14173351, 0.1700802, 0.1700802, 0.19842692, 0.2267736, 0.2267736, 0.2551203, 0.2551203, 0.28346702, 0.28346702, 0.28346702, 0.28346702, 0.3118137, 0.3118137, 0.3118137];[0.0, 0.0, 0.0, 0.0, 0.0, 0.0, 0.0, 0.0, 0.0, 0.0, 0.0, 0.0, 0.0, 0.0, 0.0, 0.0, 0.0, 0.0, 0.0, 0.0, 0.0, 0.0, 0.0, 0.0, 0.0, 0.0, 0.0, 0.0, 0.0, 0.0, 0.0, 0.0, 0.0, -1.0488279, -1.9275757, -2.211043, -2.4094696, -2.6929367, -2.8630168, -3.1181371, -3.2315238, -3.3449106, -3.5716846, -3.713418, -3.911845, -4.0535784, -4.110272, -4.1953115, -4.2803516, -4.337045, -4.5071254, -4.6772056, -5.017366, -5.1591, -5.2724867, -5.3858733, -5.4425664, -5.4709134, -5.5559535, -5.612647, -5.6409936, -5.75438, -5.8394203, -5.924461, -6.037847, -6.094541, -6.1795807, -6.2079277, -6.2362742, -6.264621, -6.292968, -6.321315, -6.378008, -6.378008, -6.434701, -6.4630475, -6.491395, -6.491395, -6.5197415, -6.5197415, -6.548088, -6.548088, -6.5764346, -6.5764346, -6.633128, -6.6614747, -6.6898212, -6.6898212, -6.7181687, -6.7465153, -6.7465153, -6.7465153, -6.774862, -6.774862, -6.774862, -6.774862, -6.774862, -6.774862, -6.774862, -6.774862, -6.8032084, -6.8032084, -6.8032084, -6.831555, -6.8599014, -6.8599014, -6.8599014, -6.8599014, -6.888248, -6.888248, -6.888248, -6.888248, -6.888248, -6.888248, -6.9165955, -6.9165955, -6.9165955];[0.004512600018642843, 0.01758929993957281, 0.03481500002089888, 0.04886520002037287, 0.0688968999311328, 0.08397329994477332, 0.10166869999375194, 0.11709750001318753, 0.13609209994319826, 0.15016479999758303, 0.1685180999338627, 0.18381349998526275, 0.2001512999413535, 0.21722419990692288, 0.2355019999668002, 0.2508027999429032, 0.2675660999957472, 0.28291900001931936, 0.3003672999329865, 0.3168305999133736, 0.33425899990834296, 0.3496676000067964, 0.3690937999635935, 0.3839477999135852, 0.40204009995795786, 0.41754209995269775, 0.43488089996390045, 0.45031139999628067, 0.46876269998028874, 0.4826274999650195, 0.5002185999182984, 0.5163689999608323, 0.5335079999640584, 0.5497320999857038, 0.5666247999761254, 0.5836715999757871, 0.6002286999719217, 0.616291799931787, 0.6343511999584734, 0.6508197999792174, 0.6675375999184325, 0.6845530999125913, 0.7005207999609411, 0.7161444999510422, 0.7356901000021026, 0.7492862999206409, 0.7666371999075636, 0.783859399962239, 0.7998577000107616, 0.8166768999071792, 0.8341844999231398, 0.8503193999640644, 0.8685907999752089, 0.8830064999638125, 0.900675299926661, 0.9183157999068499, 0.935390800004825, 0.9502981000114232, 0.9669429999776185, 0.9823537999764085, 1.0008480999385938, 1.0159685999387875, 1.0335927999112755, 1.0495679000159726, 1.0672660999698564, 1.082592299906537, 1.1009657999966294, 1.1148907999740914, 1.1338949999772012, 1.1498941999161616, 1.1696758000180125, 1.1835768999299034, 1.1995595999760553, 1.217029899940826, 1.2331643999787048, 1.250817499938421, 1.2672385999467224, 1.2831507999217138, 1.3001384999370202, 1.316622499958612, 1.3337871999247, 1.3512041999492794, 1.3675516999792308, 1.3826845999574289, 1.4023501999909058, 1.4151949000079185, 1.4340631999075413, 1.4499263999750838, 1.466431999928318, 1.484332799911499, 1.500247799907811, 1.515891999937594, 1.533891799976118, 1.5484217000193894, 1.5672181999543682, 1.5827218999620527, 1.6007133999373764, 1.6168121999362484, 1.634104699944146, 1.6494697999441996, 1.6673267999431118, 1.682458799914457, 1.7005556999938563, 1.7166415000101551, 1.7338718000100926, 1.7494593999581411, 1.765658300020732, 1.7820507999276742, 1.801806499948725, 1.8157541999826208, 1.8352866999339312, 1.8503983999835327, 1.8672031000023708, 1.8837233999511227, 1.9010013999650255, 1.9164996999315917, 1.9340875999769196]
S09;8;0;0;1;False;1000;True;;8;23.865829034683376;drag;L;7.596916;2.5228565;18.37;8.0;1.5488273999653757;1.548943700036034;1685700854.0592148;1685700854.076653;1685700854.8305879;1685700855.3317387;1685700856.313072;1685700857.8614993;[0.0, 0.0, 0.0, 0.0, 0.0, 0.0, 0.0, 0.0, 0.0, 0.0, 0.0, 0.0, 0.0, 0.0, 0.0, 0.0, 0.0, 0.0, 0.0, 0.0, 0.0, 0.0, 0.0, 0.0, 0.0, 0.0, 0.0, 0.0, 0.0, 0.0, 0.0, 0.0, 0.0, 0.0, 0.0, 0.0, 0.0, 0.0, 0.0, 0.0, 0.0, 0.0, 0.0, 0.0, 1.0204812, 1.4456817, 1.8708823, 2.6078966, 3.1181371, 3.713418, 3.968538, 4.166965, 4.4504323, 4.5921655, 4.762246, 4.9890194, 5.1591, 5.41422, 5.4992604, 5.612647, 5.697687, 5.811074, 5.896114, 6.037847, 6.151234, 6.3496614, 6.5197415, 6.6614747, 6.8599014, 6.9732885, 7.086675, 7.228409, 7.2567554, 7.341796, 7.3984895, 7.483529, 7.483529, 7.540222, 7.5685697, 7.596916, 7.596916, 7.596916, 7.596916, 7.596916, 7.596916, 7.596916, 7.596916, 7.596916, 7.596916, 7.596916, 7.596916, 7.596916, 7.596916];[0.0, 0.0, 0.0, 0.0, 0.0, 0.0, 0.0, 0.0, 0.0, 0.0, 0.0, 0.0, 0.0, 0.0, 0.0, 0.0, 0.0, 0.0, 0.0, 0.0, 0.0, 0.0, 0.0, 0.0, 0.0, 0.0, 0.0, 0.0, 0.0, 0.0, 0.0, 0.0, 0.0, 0.0, 0.0, 0.0, 0.0, 0.0, 0.0, 0.0, 0.0, 0.0, 0.0, 0.0, 0.39685383, 0.53858733, 0.6803208, 0.9070944, 1.0488279, 1.1905615, 1.2756016, 1.3039483, 1.3889884, 1.4456817, 1.5023751, 1.5590686, 1.6157619, 1.7008021, 1.7574955, 1.7574955, 1.7858423, 1.8425356, 1.8708823, 1.9275757, 1.9559225, 2.0693092, 2.1260026, 2.211043, 2.2960827, 2.3527763, 2.381123, 2.4094696, 2.4378164, 2.4378164, 2.466163, 2.4945097, 2.4945097, 2.5228565, 2.5228565, 2.5228565, 2.5228565, 2.5228565, 2.5228565, 2.5228565, 2.5228565, 2.5228565, 2.5228565, 2.5228565, 2.5228565, 2.5228565, 2.5228565, 2.5228565, 2.5228565];[0.005181899992749095, 0.019869299954734743, 0.03549360006581992, 0.05320389999542385, 0.06881339999381453, 0.08590519998688251, 0.10281870001927018, 0.11990769999101758, 0.13576950004789978, 0.15232420002575964, 0.16782460000831634, 0.18605620006565005, 0.20088689995463938, 0.2194809999782592, 0.2357202999992296, 0.25299309997353703, 0.2688145999563858, 0.28632269997615367, 0.30120019998867065, 0.3184976000338793, 0.33432689995970577, 0.3522942999843508, 0.3678586999885738, 0.3841514000669122, 0.4005032000131905, 0.41812509996816516, 0.4344372999621555, 0.45158590003848076, 0.467363000032492, 0.4852882999693975, 0.5014374000020325, 0.5183125999756157, 0.533574300003238, 0.5518980000633746, 0.5681564999977127, 0.5851025000447407, 0.6029587000375614, 0.6187326000072062, 0.6348262999672443, 0.6533737999852747, 0.6685366999590769, 0.6848964999662712, 0.7004433999536559, 0.7164651000639424, 0.7343084999592975, 0.7516654999926686, 0.7676910000154749, 0.7834150999551639, 0.8009515999583527, 0.818726500030607, 0.8332916999934241, 0.8531452000606805, 0.8675595000386238, 0.8841409999877214, 0.9003925999859348, 0.9184169999789447, 0.9342981000663713, 0.952423800015822, 0.9675110999960452, 0.985666700056754, 0.9994285999564454, 1.0186721000354737, 1.0344584999838844, 1.0506060000043362, 1.068433800013736, 1.0850543000269681, 1.1005128000397235, 1.1193993999622762, 1.1345739000244066, 1.150472000008449, 1.1673802000004798, 1.18438440002501, 1.2012807000428438, 1.2178083000471815, 1.2336182000581175, 1.2542587000643834, 1.2670006999978796, 1.284380399971269, 1.301391200046055, 1.318495300016366, 1.3346634999616072, 1.3513072000350803, 1.3666951999766752, 1.3846703000599518, 1.3996841000625864, 1.4171500999946147, 1.4339678999967873, 1.4515343999955803, 1.4669438999844715, 1.4847738000098616, 1.500424399971962, 1.5183351000305265, 1.533469200017862]
S09;9;0;0;1;False;3000;True;;8;-161.93345777305117;drag;L;-7.0583286;-2.2393894;-162.4;7.41;2.1047433000057936;2.1047893000068143;1685700858.613215;1685700858.6247914;1685700859.3810203;1685700859.8815496;1685700862.8771756;1685700864.981893;[0.0, 0.0, 0.0, 0.0, 0.0, 0.0, 0.0, 0.0, 0.0, 0.0, 0.0, 0.0, 0.0, 0.0, 0.0, 0.0, 0.0, 0.0, 0.0, 0.0, 0.0, 0.0, 0.0, 0.0, 0.0, 0.0, 0.0, 0.0, 0.0, 0.0, 0.0, 0.0, 0.0, 0.0, 0.0, 0.0, -1.417335, -3.798458, -5.41422, -6.888248, -7.341796, -7.6252627, -7.9087296, -8.050464, -8.220544, -8.277237, -8.305584, -8.362277, -8.390623, -8.447317, -8.532357, -8.532357, -8.58905, -8.58905, -8.617397, -8.617397, -8.617397, -8.617397, -8.617397, -8.617397, -8.617397, -8.617397, -8.617397, -8.58905, -8.532357, -8.447317, -8.220544, -8.050464, -7.880383, -7.795343, -7.7386494, -7.6536093, -7.596916, -7.5685697, -7.540222, -7.540222, -7.5118756, -7.483529, -7.483529, -7.483529, -7.483529, -7.483529, -7.483529, -7.4551826, -7.4551826, -7.4551826, -7.4551826, -7.4551826, -7.426836, -7.426836, -7.3984895, -7.3701425, -7.3701425, -7.3701425, -7.3701425, -7.341796, -7.341796, -7.285102, -7.2567554, -7.2567554, -7.228409, -7.228409, -7.2000623, -7.2000623, -7.1717157, -7.143369, -7.143369, -7.1150217, -7.1150217, -7.086675, -7.086675, -7.086675, -7.086675, -7.0583286, -7.0583286, -7.0583286, -7.0583286, -7.0583286, -7.0583286, -7.0583286, -7.0583286];[0.0, 0.0, 0.0, 0.0, 0.0, 0.0, 0.0, 0.0, 0.0, 0.0, 0.0, 0.0, 0.0, 0.0, 0.0, 0.0, 0.0, 0.0, 0.0, 0.0, 0.0, 0.0, 0.0, 0.0, 0.0, 0.0, 0.0, 0.0, 0.0, 0.0, 0.0, 0.0, 0.0, 0.0, 0.0, 0.0, -0.6236274, -1.3889884, -1.7858423, -2.1260026, -2.211043, -2.2677362, -2.3527763, -2.381123, -2.4378164, -2.4378164, -2.466163, -2.466163, -2.4945097, -2.5228565, -2.5512033, -2.5512033, -2.57955, -2.57955, -2.6078966, -2.6078966, -2.6078966, -2.6078966, -2.6078966, -2.6078966, -2.6362433, -2.6362433, -2.6362433, -2.6362433, -2.6362433, -2.6078966, -2.5512033, -2.5228565, -2.4945097, -2.466163, -2.466163, -2.466163, -2.466163, -2.466163, -2.466163, -2.466163, -2.466163, -2.466163, -2.466163, -2.466163, -2.466163, -2.4378164, -2.4094696, -2.4094696, -2.4094696, -2.4094696, -2.4094696, -2.4094696, -2.381123, -2.381123, -2.3527763, -2.3527763, -2.3527763, -2.3527763, -2.3527763, -2.3244295, -2.3244295, -2.2960827, -2.2677362, -2.2677362, -2.2393894, -2.211043, -2.211043, -2.211043, -2.211043, -2.211043, -2.211043, -2.211043, -2.211043, -2.211043, -2.211043, -2.211043, -2.211043, -2.211043, -2.211043, -2.211043, -2.211043, -2.211043, -2.2393894, -2.2393894, -2.2393894];[0.003961700014770031, 0.017946299980394542, 0.03483260003849864, 0.05177470005583018, 0.06801679998170584, 0.08477269997820258, 0.10159129998646677, 0.11790930002462119, 0.13493259996175766, 0.15150320006068796, 0.1683006000239402, 0.18448169995099306, 0.20149080001283437, 0.2182182000251487, 0.2343989999499172, 0.2513760000001639, 0.26945200003683567, 0.28445699997246265, 0.3023815000196919, 0.3182563000591472, 0.33429410005919635, 0.3513694000430405, 0.3681322999764234, 0.38411400001496077, 0.4014766999753192, 0.4177143999841064, 0.43493840005248785, 0.4510325000155717, 0.46839439996983856, 0.4843955000396818, 0.5016689000185579, 0.517690800013952, 0.5362568000564352, 0.5514056000392884, 0.5689199999906123, 0.5846671999897808, 0.6019755000015721, 0.6176706999540329, 0.6346124999690801, 0.6521707000210881, 0.6682481999741867, 0.6846669999649748, 0.7018013000488281, 0.7177899000234902, 0.7350787000032142, 0.7521637000609189, 0.7694117999635637, 0.7851154999807477, 0.8020051999483258, 0.8180463999742642, 0.8350417000474408, 0.8510429000016302, 0.8686019000597298, 0.8856434000190347, 0.9018048000289127, 0.9178420000243932, 0.9348331999499351, 0.9527706999797374, 0.9677697999868542, 0.9851158000528812, 1.001742299995385, 1.0177980000153184, 1.0348881999962032, 1.0517658999888226, 1.0688987000612542, 1.0849408999783918, 1.1012904000235721, 1.1177468999521807, 1.1348165000090376, 1.1511002000188455, 1.1686045000096783, 1.1851711999624968, 1.2017729999497533, 1.2174374000169337, 1.2348380000330508, 1.2517540999688208, 1.2690296999644488, 1.2848723999923095, 1.3829185999929905, 1.4014991000294685, 1.417347599985078, 1.4348829999798909, 1.4516585000092164, 1.468231700011529, 1.4847626000409946, 1.5015523000620306, 1.517890900024213, 1.534903599997051, 1.5519254000391811, 1.568885099957697, 1.5849639000371099, 1.6019438999937847, 1.6178780000191182, 1.6361762000015005, 1.6509564999723807, 1.6689619000535458, 1.6850598000455648, 1.7050367000047117, 1.7193773000035435, 1.7367595999967307, 1.753604199970141, 1.7716773999854922, 1.786769300000742, 1.8041416000341997, 1.8208932999987155, 1.8407073999987915, 1.8536772000370547, 1.8716470999643207, 1.8867459000321105, 1.9035704999696463, 1.9179517000447959, 1.935864600003697, 1.951219900045544, 1.9692497999640182, 1.986251899972558, 2.0041229999624193, 2.0207584999734536, 2.0375729999504983, 2.0548830999759957, 2.070929600042291, 2.0875202000606805]
S09;10;0;0;1;False;3000;True;;8;-18.07984894636853;drag;L;6.633128;-1.899229;-15.98;6.9;1.816844500019215;1.8169167999876663;1685700865.7734928;1685700865.791886;1685700866.5468743;1685700867.0462875;1685700870.0455613;1685700871.8625696;[0.0, 0.0, 0.0, 0.0, 0.0, 0.0, 0.0, 0.0, 0.0, 0.0, 0.0, 0.0, 0.0, 0.0, 0.0, 0.0, 0.0, 0.0, 0.0, 0.0, 0.0, 0.0, 0.0, 0.0, 0.0, 0.0, 0.0, 0.0, 0.0, 0.0, 0.0, 0.0, 0.0, 0.0, 0.0, 0.0, 1.7574955, 2.4378164, 2.9764037, 3.4866443, 4.081925, 4.365392, 4.762246, 5.017366, 5.300833, 5.3858733, 5.5843005, 5.6409936, 5.7260337, 5.75438, 5.782727, 5.782727, 5.811074, 5.8394203, 5.8394203, 5.8394203, 5.8394203, 5.8394203, 5.8394203, 5.8677673, 5.8677673, 5.896114, 5.896114, 5.924461, 5.924461, 5.9528074, 5.9528074, 5.981154, 5.981154, 6.0095005, 6.037847, 6.0661945, 6.094541, 6.1228876, 6.151234, 6.151234, 6.1795807, 6.1795807, 6.2079277, 6.2362742, 6.2362742, 6.264621, 6.264621, 6.292968, 6.292968, 6.321315, 6.321315, 6.3496614, 6.378008, 6.378008, 6.4063544, 6.4063544, 6.434701, 6.434701, 6.4630475, 6.491395, 6.491395, 6.5197415, 6.5197415, 6.5197415, 6.548088, 6.548088, 6.5764346, 6.5764346, 6.6047816, 6.6047816, 6.633128, 6.633128, 6.633128];[0.0, 0.0, 0.0, 0.0, 0.0, 0.0, 0.0, 0.0, 0.0, 0.0, 0.0, 0.0, 0.0, 0.0, 0.0, 0.0, 0.0, 0.0, 0.0, 0.0, 0.0, 0.0, 0.0, 0.0, 0.0, 0.0, 0.0, 0.0, 0.0, 0.0, 0.0, 0.0, 0.0, 0.0, 0.0, 0.0, -0.1133868, -0.19842692, -0.28346702, -0.36850712, -0.48189393, -0.5102406, -0.56693405, -0.6236274, -0.6803208, -0.7086675, -0.73701423, -0.76536095, -0.76536095, -0.79370767, -0.8220543, -0.8220543, -0.8220543, -0.85040104, -0.85040104, -0.87874776, -0.87874776, -0.9070944, -0.93544114, -0.9921345, -1.0488279, -1.0771747, -1.1055214, -1.1338681, -1.1622148, -1.1905615, -1.1905615, -1.2189082, -1.2472548, -1.2756016, -1.332295, -1.3889884, -1.4456817, -1.5023751, -1.5590686, -1.5590686, -1.6157619, -1.6157619, -1.6441087, -1.6441087, -1.6724553, -1.6724553, -1.7008021, -1.7291489, -1.7291489, -1.7574955, -1.7574955, -1.7858423, -1.7858423, -1.7858423, -1.7858423, -1.8141888, -1.8141888, -1.8141888, -1.8141888, -1.8141888, -1.8141888, -1.8141888, -1.8425356, -1.8425356, -1.8425356, -1.8425356, -1.8425356, -1.8425356, -1.8425356, -1.8708823, -1.8708823, -1.899229, -1.899229];[0.004348999937064946, 0.01934659993276, 0.0371084000216797, 0.05140899994876236, 0.07014049997087568, 0.08558860002085567, 0.10276019992306828, 0.11821430001873523, 0.13705319992732257, 0.15270520001649857, 0.1694092999678105, 0.18322639993857592, 0.20243089995346963, 0.21858400001656264, 0.2352915999945253, 0.2510822999756783, 0.26697140000760555, 0.28556380001828074, 0.30341940000653267, 0.318243799963966, 0.3350042999954894, 0.35195229994133115, 0.36937139998190105, 0.3852363999467343, 0.4032048999797553, 0.41912619990762323, 0.4377436999930069, 0.4522562000202015, 0.46952419995795935, 0.4849431000184268, 0.5025424999184906, 0.5181502000195906, 0.5358374000061303, 0.5512990999268368, 0.5697326000081375, 0.5838861999800429, 0.6057674000039697, 0.617684599943459, 0.6366417999379337, 0.651062099961564, 0.6695187999866903, 0.6849936000071466, 0.7030538999242708, 0.7190152999246493, 0.7402303999988362, 0.7511575999669731, 0.7689951999345794, 0.7838773999828845, 0.802856299909763, 0.8192645999370143, 0.8357316999463364, 0.8510991999646649, 0.8709375999169424, 0.8847055999794975, 0.9020632000174373, 0.9192663999274373, 0.935561899910681, 0.951294899918139, 0.969164100009948, 0.9845043999375775, 1.0050119999796152, 1.0187703999690711, 1.0351910999743268, 1.0507820999482647, 1.0684147999854758, 1.085683099925518, 1.1032436999958009, 1.1201317999511957, 1.1360535999992862, 1.1515759999165311, 1.1672599000157788, 1.184594799997285, 1.2016276000067592, 1.2175239999778569, 1.236785399960354, 1.250691199908033, 1.2684071999974549, 1.283974599908106, 1.3027617000043392, 1.3203770999098197, 1.3361492999829352, 1.3507071000058204, 1.3679383000126109, 1.38431779993698, 1.4018766999943182, 1.4180016999598593, 1.4358078999212012, 1.4528184999944642, 1.4679013999411836, 1.4849502999568358, 1.5020162999862805, 1.5157880999613553, 1.5347753999521956, 1.5516730999806896, 1.568133799941279, 1.5860218999441713, 1.6021734999958426, 1.6184296999126673, 1.6352419999893755, 1.651207400020212, 1.669741899939254, 1.6842903000069782, 1.7027611999073997, 1.7170879999175668, 1.7357436999445781, 1.7519277000101283, 1.7711548999650404, 1.7844294999958947, 1.8020012999186292]
S09;11;0;0;1;False;1000;True;;8;5.385054829918067;drag;L;7.426836;0.96378785;7.39;7.49;1.7829728000797331;1.7830623999470845;1685700872.5871878;1685700872.5906346;1685700873.3458457;1685700873.8483899;1685700874.8288965;1685700876.6118047;[0.0, 0.0, 0.0, 0.0, 0.0, 0.0, 0.0, 0.0, 0.0, 0.0, 0.0, 0.0, 0.0, 0.0, 0.0, 0.0, 0.0, 0.0, 0.0, 0.0, 0.0, 0.0, 0.0, 0.0, 0.0, 0.0, 0.0, 0.0, 0.0, 0.0, 0.0, 0.0, 0.0, 0.0, 0.0, 0.0, 0.0, 0.0, 1.0488279, 3.6000311, 4.5071254, 5.3858733, 6.5197415, 7.0016356, 7.341796, 7.5685697, 7.681956, 7.7669964, 7.82369, 7.8520365, 7.9087296, 8.022117, 8.107157, 8.135503, 8.16385, 8.192197, 8.220544, 8.220544, 8.24889, 8.277237, 8.305584, 8.362277, 8.362277, 8.390623, 8.390623, 8.418971, 8.418971, 8.418971, 8.418971, 8.418971, 8.418971, 8.390623, 8.362277, 8.33393, 8.305584, 8.220544, 8.135503, 8.050464, 7.99377, 7.9087296, 7.880383, 7.8520365, 7.82369, 7.795343, 7.7669964, 7.7669964, 7.7386494, 7.7386494, 7.7386494, 7.710303, 7.710303, 7.710303, 7.681956, 7.6536093, 7.6536093, 7.6252627, 7.6252627, 7.596916, 7.596916, 7.5685697, 7.540222, 7.540222, 7.5118756, 7.5118756, 7.4551826, 7.426836, 7.426836];[0.0, 0.0, 0.0, 0.0, 0.0, 0.0, 0.0, 0.0, 0.0, 0.0, 0.0, 0.0, 0.0, 0.0, 0.0, 0.0, 0.0, 0.0, 0.0, 0.0, 0.0, 0.0, 0.0, 0.0, 0.0, 0.0, 0.0, 0.0, 0.0, 0.0, 0.0, 0.0, 0.0, 0.0, 0.0, 0.0, 0.0, 0.0, 0.3401604, 0.85040104, 0.96378785, 1.0204812, 1.0488279, 1.0488279, 1.0488279, 1.0488279, 1.0488279, 1.0488279, 1.0771747, 1.1055214, 1.1055214, 1.1338681, 1.1338681, 1.1622148, 1.1905615, 1.1905615, 1.1905615, 1.1905615, 1.2189082, 1.2189082, 1.2472548, 1.2472548, 1.2472548, 1.2472548, 1.2472548, 1.2472548, 1.2472548, 1.2472548, 1.2189082, 1.2189082, 1.1905615, 1.1622148, 1.1338681, 1.1055214, 1.1055214, 1.0488279, 1.0204812, 0.9921345, 0.9921345, 0.96378785, 0.96378785, 0.96378785, 0.96378785, 0.96378785, 0.96378785, 0.96378785, 0.96378785, 0.96378785, 0.96378785, 0.96378785, 0.96378785, 0.96378785, 0.96378785, 0.96378785, 0.96378785, 0.96378785, 0.96378785, 0.96378785, 0.96378785, 0.96378785, 0.96378785, 0.96378785, 0.96378785, 0.96378785, 0.96378785, 0.96378785, 0.96378785];[0.004550899961031973, 0.019412599969655275, 0.035271800006739795, 0.05234149994794279, 0.06799499993212521, 0.08675279992166907, 0.10201739997137338, 0.12058979994617403, 0.13545900001190603, 0.1535583999939263, 0.16914549993816763, 0.1861475999467075, 0.20073299994692206, 0.21856369997840375, 0.23534399992786348, 0.2523782999487594, 0.26899339992087334, 0.28546079993247986, 0.30142139992676675, 0.3198618999449536, 0.33544669998809695, 0.35315400001127273, 0.3685746999690309, 0.3867360999574885, 0.4019305999390781, 0.42015179991722107, 0.4349389999406412, 0.45339139993302524, 0.46875949995592237, 0.48671279998961836, 0.5019351999508217, 0.5187272999901325, 0.5358800999820232, 0.5551829999312758, 0.5681707999901846, 0.5853220999706537, 0.6004539999412373, 0.6180267999880016, 0.6363365999422967, 0.6531192999100313, 0.6680179999675602, 0.6865108999190852, 0.7026506999973208, 0.7188516999594867, 0.7356360999401659, 0.7516155999619514, 0.7672730999765918, 0.7865323999430984, 0.800672399927862, 0.8184554999461398, 0.8339201000053436, 0.8513701999327168, 0.8715394999599084, 0.8846917999908328, 0.9009574999799952, 0.9201055999146774, 0.9343759999610484, 0.9523662999272346, 0.9688988999696448, 0.9843634999124333, 1.002319399965927, 1.019155599991791, 1.0341639999533072, 1.0508329999865964, 1.0677318999078125, 1.0859119999222457, 1.1009597999509424, 1.1183183999964967, 1.1377154999645427, 1.1521041999803856, 1.167773099965416, 1.1852852998999879, 1.2014452998992056, 1.2197090999688953, 1.2340864000143483, 1.2527047999901697, 1.271831199992448, 1.2853326000040397, 1.3009979999624193, 1.3199718999676406, 1.334133299998939, 1.3530989999417216, 1.3665727999759838, 1.3846528999274597, 1.40049419994466, 1.4176971999695525, 1.433716099942103, 1.4523813999257982, 1.4677728000096977, 1.4860302999150008, 1.5012843000004068, 1.5178534999722615, 1.534156300011091, 1.5512252999469638, 1.5662878999719396, 1.5858950999099761, 1.6000425999518484, 1.6181388999102637, 1.6347442999249324, 1.6508919999469072, 1.668613199959509, 1.6850429999176413, 1.7012080999556929, 1.7187852999195457, 1.7338546999963, 1.7520192000083625, 1.768297699978575]
S09;12;0;0;1;False;1000;True;;8;-47.7850918363002;drag;L;5.045713;-5.5559535;-47.76;7.51;2.1157083000289276;2.1158233999740332;1685700877.3931723;1685700877.407853;1685700878.163185;1685700878.6632445;1685700879.6448312;1685700881.7611666;[0.0, 0.0, 0.0, 0.0, 0.0, 0.0, 0.0, 0.0, 0.0, 0.0, 0.0, 0.0, 0.0, 0.0, 0.0, 0.0, 0.0, 0.0, 0.0, 0.0, 0.0, 0.0, 0.0, 0.0, 0.0, 0.0, 0.0, 0.0, 0.0, 0.0, 0.0, 0.0, 0.0, 0.0, 0.0, 0.0, 0.0, 0.0, 0.0, 0.0, 0.0, 0.0, 0.0, 1.2472548, 1.899229, 2.4378164, 2.6362433, 2.7779768, 2.9197102, 3.0330973, 3.1181371, 3.2031772, 3.2598708, 3.3449106, 3.4016042, 3.4582977, 3.514991, 3.6283777, 3.6850712, 3.7417645, 3.770111, 3.8551514, 3.9401915, 4.025232, 4.1386185, 4.1953115, 4.252005, 4.337045, 4.337045, 4.3937387, 4.3937387, 4.422086, 4.4504323, 4.4504323, 4.478779, 4.478779, 4.5071254, 4.5071254, 4.5354724, 4.5354724, 4.563819, 4.5921655, 4.5921655, 4.620512, 4.6772056, 4.7055526, 4.733899, 4.7905927, 4.7905927, 4.847286, 4.847286, 4.875633, 4.9039793, 4.9039793, 4.932326, 4.932326, 4.960673, 4.960673, 4.960673, 4.960673, 4.960673, 4.960673, 4.960673, 4.960673, 4.9890194, 4.9890194, 4.9890194, 5.017366, 5.017366, 5.017366, 5.045713, 5.045713, 5.045713, 5.045713, 5.045713, 5.045713, 5.045713, 5.045713, 5.045713, 5.045713, 5.045713, 5.045713, 5.045713, 5.045713, 5.045713, 5.045713, 5.045713];[0.0, 0.0, 0.0, 0.0, 0.0, 0.0, 0.0, 0.0, 0.0, 0.0, 0.0, 0.0, 0.0, 0.0, 0.0, 0.0, 0.0, 0.0, 0.0, 0.0, 0.0, 0.0, 0.0, 0.0, 0.0, 0.0, 0.0, 0.0, 0.0, 0.0, 0.0, 0.0, 0.0, 0.0, 0.0, 0.0, 0.0, 0.0, 0.0, 0.0, 0.0, 0.0, 0.0, -1.7574955, -2.5512033, -3.2598708, -3.514991, -3.6283777, -3.798458, -3.8834982, -3.9401915, -3.996885, -4.025232, -4.081925, -4.110272, -4.166965, -4.1953115, -4.252005, -4.2803516, -4.3086987, -4.365392, -4.4504323, -4.5071254, -4.563819, -4.6772056, -4.733899, -4.762246, -4.818939, -4.818939, -4.847286, -4.847286, -4.847286, -4.847286, -4.847286, -4.847286, -4.875633, -4.875633, -4.9039793, -4.932326, -4.932326, -4.960673, -4.960673, -4.9890194, -5.017366, -5.045713, -5.0740595, -5.0740595, -5.0740595, -5.1024065, -5.1024065, -5.130753, -5.130753, -5.130753, -5.1591, -5.1591, -5.1591, -5.1874466, -5.1874466, -5.215793, -5.215793, -5.2441397, -5.2441397, -5.2724867, -5.2724867, -5.2724867, -5.300833, -5.300833, -5.32918, -5.32918, -5.3575263, -5.3858733, -5.3858733, -5.41422, -5.41422, -5.4425664, -5.4425664, -5.4709134, -5.4992604, -5.4992604, -5.4992604, -5.4992604, -5.527607, -5.527607, -5.527607, -5.527607, -5.527607, -5.5559535];[0.004293099977076054, 0.019005200010724366, 0.034421299933455884, 0.05193650000728667, 0.06854419992305338, 0.0856372999260202, 0.10170689993537962, 0.11916719994042069, 0.1345380999846384, 0.15156989998649806, 0.16702739999163896, 0.18662579997908324, 0.20032559998799115, 0.21869509993121028, 0.23496819997671992, 0.2510135999182239, 0.26738159998785704, 0.28556789993308485, 0.30111769994255155, 0.318827599985525, 0.334016399923712, 0.3518824999919161, 0.36685589991975576, 0.3853386000264436, 0.4010148999514058, 0.41792099992744625, 0.43446090002544224, 0.4522245000116527, 0.46861939993686974, 0.48485649994108826, 0.5010595999192446, 0.5200713999802247, 0.5341143999248743, 0.5511574000120163, 0.5671982999192551, 0.5874644999857992, 0.6007594999391586, 0.6179875999223441, 0.6329180999891832, 0.6526050999527797, 0.6677662000292912, 0.6846605000318959, 0.7003467999165878, 0.7181904999306425, 0.733114399947226, 0.7523434000322595, 0.7678062999621034, 0.785519800032489, 0.8022021999349818, 0.8186832999344915, 0.835101299919188, 0.8505550000118092, 0.8670352000044659, 0.8852868999820203, 0.9001699999207631, 0.9184301999630406, 0.9343690000241622, 0.951146199950017, 0.9670092000160366, 0.9853908999357373, 1.000855699996464, 1.0195550000062212, 1.033421600004658, 1.0507496999343857, 1.0677402999717742, 1.0850801999913529, 1.1003406000090763, 1.1182808999437839, 1.1331394999288023, 1.152767900028266, 1.166417000000365, 1.1859315999317914, 1.2021786000113934, 1.2178083999315277, 1.235189100028947, 1.2515298000071198, 1.2673403000226244, 1.28433519997634, 1.300539799965918, 1.3181336999405175, 1.3343964000232518, 1.3507710000267252, 1.3677942999638617, 1.384399399976246, 1.4001288999570534, 1.4200545999919996, 1.43549790000543, 1.4513727999292314, 1.4668893999187276, 1.4840523999882862, 1.5029195999959484, 1.5172491000266746, 1.5343838999979198, 1.5521413999376819, 1.5669318999862298, 1.5842168999370188, 1.601716800010763, 1.6174592999741435, 1.6334290999220684, 1.6509865999687463, 1.666739200009033, 1.684801199939102, 1.7007865000050515, 1.7183741999324411, 1.7347602000227198, 1.7508275000145659, 1.7668426999589428, 1.7850879000034183, 1.8004971999907866, 1.819336500018835, 1.8334576999768615, 1.8510198999429122, 1.8676122999750078, 1.8847324999514967, 1.9001903999596834, 1.9185321999248117, 1.9335571000119671, 1.9543436999665573, 1.9669775000074878, 1.9842769999522716, 2.0006047999486327, 2.0178999999770895, 2.033431699965149, 2.0513186999596655, 2.065818900009617, 2.085058999946341, 2.10031839995645]
S09;13;0;0;1;False;3000;True;;8;-85.54664421334208;drag;L;0.9070944;-5.5559535;-80.73;5.63;1.3343979000346735;1.3349322999129072;1685700882.4333136;1685700882.4404418;1685700883.1953235;1685700883.6976829;1685700886.6949294;1685700888.0298858;[0.0, 0.0, 0.0, 0.0, 0.0, 0.0, 0.0, 0.0, 0.0, 0.0, 0.0283467, 0.0283467, 0.0283467, 0.0283467, 0.0283467, 0.0283467, 0.0283467, 0.0283467, 0.0283467, 0.0283467, 0.0283467, 0.0283467, 0.0283467, 0.0283467, 0.0283467, 0.0283467, 0.0283467, 0.0283467, 0.0283467, 0.0283467, 0.0283467, 0.3401604, 0.59528077, 0.87874776, 0.96378785, 1.0488279, 1.0771747, 1.1055214, 1.1338681, 1.1338681, 1.1622148, 1.1905615, 1.1905615, 1.1905615, 1.2189082, 1.2189082, 1.2189082, 1.2189082, 1.2189082, 1.2189082, 1.2189082, 1.2189082, 1.2189082, 1.2189082, 1.1905615, 1.1622148, 1.1338681, 1.1338681, 1.1338681, 1.1055214, 1.0771747, 1.0771747, 1.0488279, 1.0488279, 1.0488279, 1.0488279, 1.0488279, 1.0204812, 1.0204812, 1.0204812, 0.9921345, 0.9921345, 0.9921345, 0.96378785, 0.96378785, 0.96378785, 0.93544114, 0.93544114, 0.93544114, 0.9070944];[0.0, 0.0, 0.0, 0.0, 0.0, 0.0, 0.0, 0.0, 0.0, 0.0, 0.0, 0.0, 0.0, 0.0, 0.0, 0.0, 0.0, 0.0, 0.0, 0.0, 0.0, 0.0, 0.0, 0.0, 0.0, 0.0, 0.0, 0.0, 0.0, 0.0, 0.0, -1.2756016, -2.3527763, -3.316564, -3.713418, -3.968538, -4.1953115, -4.3086987, -4.422086, -4.4504323, -4.5071254, -4.5921655, -4.620512, -4.7055526, -4.762246, -4.818939, -4.847286, -4.875633, -4.932326, -4.960673, -4.9890194, -5.045713, -5.0740595, -5.1024065, -5.1591, -5.2441397, -5.300833, -5.32918, -5.3575263, -5.3858733, -5.41422, -5.4425664, -5.4425664, -5.4709134, -5.4709134, -5.4992604, -5.4992604, -5.4992604, -5.4992604, -5.4992604, -5.527607, -5.527607, -5.527607, -5.527607, -5.527607, -5.527607, -5.527607, -5.527607, -5.527607, -5.5559535];[0.004511100007221103, 0.01730810001026839, 0.03394459991250187, 0.049120299983769655, 0.06663589994423091, 0.0830269999569282, 0.0996620999649167, 0.11660830001346767, 0.13495959993451834, 0.15106359997298568, 0.17008670000359416, 0.1852542000124231, 0.2009029999608174, 0.2180108999600634, 0.2355360999936238, 0.251574800000526, 0.27004859992302954, 0.28437140001915395, 0.3035015999339521, 0.3177278999937698, 0.33646999998018146, 0.35167459992226213, 0.36959159991238266, 0.3841598000144586, 0.4015726000070572, 0.4187693999847397, 0.4368161999154836, 0.45204349991399795, 0.4697405999759212, 0.4842885999241844, 0.5011020000092685, 0.5162504999898374, 0.5339654999552295, 0.5505462000146508, 0.5684326000045985, 0.5850190999917686, 0.6012067999690771, 0.6189020000165328, 0.6342939999885857, 0.6524373999563977, 0.67096119991038, 0.6847870999481529, 0.7012423999840394, 0.7181958999717608, 0.7352994999382645, 0.75215999991633, 0.7689226999646053, 0.7839561000000685, 0.8022548999870196, 0.8179637999273837, 0.8355095000006258, 0.8507518999977037, 0.8679012999637052, 0.8847534999949858, 0.9013737000059336, 0.9173204000107944, 0.9369120999472216, 0.9504315999802202, 0.9685026999795809, 0.9845826999517158, 1.0009793000062928, 1.0176612999057397, 1.0344482999062166, 1.0500576000194997, 1.0692127000074834, 1.0855096000013873, 1.1014150999253616, 1.1181415999308228, 1.134547899942845, 1.1513076999690384, 1.1686640999978408, 1.184893099940382, 1.2025709999725223, 1.2180019000079483, 1.2348213999066502, 1.2518561999313533, 1.2676312999101356, 1.28424399998039, 1.3001284999772906, 1.3168019999284297]
S09;14;0;0;1;False;1000;True;;8;-20.6110533541752;drag;L;6.7465153;-3.2598708;-25.79;7.49;1.917474600020796;1.9175433999625966;1685700888.7963865;1685700888.8066626;1685700889.561599;1685700890.064091;1685700891.0432415;1685700892.9610589;[0.0, 0.0, 0.0, 0.0, 0.0, 0.0, 0.0, 0.0, 0.0, 0.0, 0.0, 0.0, 0.0, 0.0, 0.0, 0.0, 0.0, 0.0, 0.0, 0.0, 0.0, 0.0, 0.0, 0.0, 0.0, 0.0, 0.0, 0.0, 0.0, 0.0, 0.0, 0.0, 0.0, 0.0, 0.0, 0.0, 0.0, 0.0, 0.0, 0.0, 0.0, 0.0, 0.0, 1.7291489, 2.57955, 3.3732576, 3.6283777, 3.770111, 3.798458, 3.968538, 4.081925, 4.2803516, 4.3937387, 4.5071254, 4.5354724, 4.5921655, 4.648859, 4.6772056, 4.733899, 4.7905927, 4.818939, 4.847286, 5.017366, 5.215793, 5.527607, 5.697687, 5.8394203, 5.981154, 6.0661945, 6.094541, 6.151234, 6.151234, 6.1795807, 6.2362742, 6.264621, 6.321315, 6.378008, 6.434701, 6.4630475, 6.5197415, 6.548088, 6.633128, 6.6898212, 6.774862, 6.831555, 6.8599014, 6.888248, 6.9165955, 6.944942, 6.944942, 6.9732885, 6.9732885, 6.9732885, 6.9732885, 6.9732885, 6.9732885, 6.9732885, 6.9732885, 6.9732885, 6.9732885, 6.9732885, 6.9732885, 6.944942, 6.9165955, 6.9165955, 6.888248, 6.888248, 6.8599014, 6.8599014, 6.831555, 6.831555, 6.8032084, 6.774862, 6.7465153, 6.7465153];[0.0, 0.0, 0.0, 0.0, 0.0, 0.0, 0.0, 0.0, 0.0, 0.0, 0.0, 0.0, 0.0, 0.0, 0.0, 0.0, 0.0, 0.0, 0.0, 0.0, 0.0, 0.0, 0.0, 0.0, 0.0, 0.0, 0.0, 0.0, 0.0, 0.0, 0.0, 0.0, 0.0, 0.0, 0.0, 0.0, 0.0, 0.0, 0.0, 0.0, 0.0, 0.0, 0.0, -0.85040104, -1.3606416, -1.7858423, -1.9275757, -2.012616, -2.012616, -2.0976558, -2.1543493, -2.2677362, -2.3244295, -2.381123, -2.381123, -2.4094696, -2.4378164, -2.466163, -2.466163, -2.4945097, -2.4945097, -2.5228565, -2.5512033, -2.6362433, -2.7496302, -2.83467, -2.9197102, -2.9764037, -3.0330973, -3.0330973, -3.0614438, -3.0614438, -3.0897903, -3.0897903, -3.0897903, -3.0897903, -3.0897903, -3.0897903, -3.0897903, -3.1181371, -3.1181371, -3.146484, -3.146484, -3.1748307, -3.2031772, -3.2031772, -3.2315238, -3.2315238, -3.2315238, -3.2315238, -3.2315238, -3.2315238, -3.2598708, -3.2598708, -3.2598708, -3.2598708, -3.2598708, -3.2598708, -3.2598708, -3.2598708, -3.2598708, -3.2598708, -3.2598708, -3.2598708, -3.2598708, -3.2598708, -3.2598708, -3.2598708, -3.2598708, -3.2598708, -3.2598708, -3.2598708, -3.2598708, -3.2598708, -3.2598708];[0.0035496000200510025, 0.02031249995343387, 0.036345699918456376, 0.053228699951432645, 0.06849159998819232, 0.08668229996692389, 0.10159480001311749, 0.11944699997548014, 0.13479739998001605, 0.15408150001894683, 0.1701312999939546, 0.1887216999894008, 0.20166309992782772, 0.22111299994867295, 0.2348449999699369, 0.25252729991916567, 0.2690683000255376, 0.28624539996962994, 0.30110529996454716, 0.32062569994013757, 0.3355026999488473, 0.3528002999955788, 0.36936549993697554, 0.3860608999384567, 0.40193779999390244, 0.4212431999621913, 0.4347218999173492, 0.4540141000179574, 0.46934529999271035, 0.4870279999449849, 0.5026853999588639, 0.5201438999501988, 0.5359406999778003, 0.5547427999554202, 0.5699480000184849, 0.5875575999962166, 0.602600899990648, 0.6216814999934286, 0.6357883999589831, 0.6535375999519601, 0.6676331999478862, 0.6860309999901801, 0.7012358999345452, 0.7193503000307828, 0.7351329999510199, 0.753211300005205, 0.7675898999441415, 0.7893735999241471, 0.8013378999894485, 0.8200264999177307, 0.8360954999225214, 0.8518612999469042, 0.8695151000283659, 0.8867619999218732, 0.9008426999207586, 0.9222960999468341, 0.9366002000169829, 0.9512434999924153, 0.9691616999916732, 0.985272099962458, 1.001731100026518, 1.0184272000333294, 1.0343446999322623, 1.0539185999659821, 1.069247999927029, 1.0860125999897718, 1.1010018999222666, 1.1191509999334812, 1.138644199934788, 1.1517597999190912, 1.167827200028114, 1.1874365999829024, 1.2024465999566019, 1.2208431999897584, 1.2379719000309706, 1.2526459000073373, 1.2690155999734998, 1.285458100028336, 1.300873199943453, 1.3221742999739945, 1.3359531000023708, 1.353863599942997, 1.3680767000187188, 1.386171399964951, 1.4020733999786898, 1.4186816000146791, 1.4362640000181273, 1.4522336999652907, 1.4704957000212744, 1.486506599932909, 1.5037399999564514, 1.518653600011021, 1.5358934999676421, 1.5532937999814749, 1.5687218999955803, 1.587790000019595, 1.6017225999385118, 1.6189978999318555, 1.6367989999707788, 1.6527526000281796, 1.6687731000129133, 1.6858516000211239, 1.701570799923502, 1.7185586999403313, 1.734969799988903, 1.7520116999512538, 1.7687811999348924, 1.785750599927269, 1.8029544999590144, 1.8193139999639243, 1.8351885000010952, 1.8543891999870539, 1.8685339000076056, 1.8857729999581352, 1.9037312000291422]
S09;15;0;0;1;False;3000;True;;8;16.433894443768622;drag;L;6.3496614;2.2393894;19.43;6.73;1.4318061000667512;1.431959499954246;1685700893.7337337;1685700893.7399626;1685700894.4953172;1685700894.9972498;1685700897.9961984;1685700899.4281938;[0.0, 0.0, 0.0, 0.0, 0.0, 0.0, 0.0, 0.0, 0.0, 0.0, 0.0, 0.0, 0.0, 0.0, 0.0, 0.0, 0.0, 0.0, 0.0, 0.0, 0.0, 0.0, 0.0, 0.0, 0.0, 0.0, 0.0, 0.0, 0.0, 0.0, 0.0, 0.0, 0.0, 0.0, 1.6441087, 2.2960827, 2.8630168, 3.5716846, 3.9401915, 4.110272, 4.3086987, 4.4504323, 4.5921655, 4.847286, 4.960673, 5.130753, 5.2441397, 5.300833, 5.3858733, 5.41422, 5.4425664, 5.4992604, 5.527607, 5.66934, 5.811074, 5.9528074, 6.1228876, 6.2079277, 6.264621, 6.292968, 6.3496614, 6.3496614, 6.378008, 6.378008, 6.378008, 6.378008, 6.378008, 6.378008, 6.378008, 6.378008, 6.378008, 6.378008, 6.378008, 6.378008, 6.378008, 6.378008, 6.378008, 6.378008, 6.378008, 6.378008, 6.378008, 6.378008, 6.378008, 6.378008, 6.3496614];[0.0, 0.0, 0.0, 0.0, 0.0, 0.0, 0.0, 0.0, 0.0, 0.0, 0.0, 0.0, 0.0, 0.0, 0.0, 0.0, 0.0, 0.0, 0.0, 0.0, 0.0, 0.0, 0.0, 0.0, 0.0, 0.0, 0.0, 0.0, 0.0, 0.0, 0.0, 0.0, 0.0, 0.0, 0.53858733, 0.73701423, 0.93544114, 1.1055214, 1.1905615, 1.2189082, 1.2756016, 1.332295, 1.3889884, 1.5023751, 1.5874153, 1.7008021, 1.7291489, 1.7858423, 1.8425356, 1.8708823, 1.899229, 1.899229, 1.9559225, 2.012616, 2.0693092, 2.0976558, 2.1543493, 2.182696, 2.211043, 2.211043, 2.211043, 2.211043, 2.211043, 2.211043, 2.211043, 2.211043, 2.211043, 2.211043, 2.211043, 2.211043, 2.211043, 2.211043, 2.211043, 2.211043, 2.211043, 2.211043, 2.2393894, 2.2393894, 2.2393894, 2.2393894, 2.2393894, 2.2393894, 2.2393894, 2.2393894, 2.2393894];[0.0053524000104516745, 0.030471300007775426, 0.04957150004338473, 0.06551410001702607, 0.08354280004277825, 0.09985230001620948, 0.11710959998890758, 0.13314639998134226, 0.15034609998110682, 0.16598900000099093, 0.18299140001181513, 0.1978067000163719, 0.21684250002726912, 0.23230399994645268, 0.2497713000047952, 0.2660864000208676, 0.2846917000133544, 0.2995527000166476, 0.317680099979043, 0.3336143000051379, 0.3504415999632329, 0.3666922999545932, 0.3832679999759421, 0.4001289999578148, 0.4183692999649793, 0.4333779000444338, 0.4512760000070557, 0.4660212999442592, 0.4845199999399483, 0.5004446000093594, 0.5174455000087619, 0.5324714999878779, 0.5495443999534473, 0.565735699958168, 0.584866699995473, 0.599030000041239, 0.6178459000075236, 0.6350689999526367, 0.6500091999769211, 0.6657941000303254, 0.6815274000400677, 0.6979206999531016, 0.7171986999455839, 0.7319334000349045, 0.7494498000014573, 0.7666310999775305, 0.7816951000131667, 0.7989842999959365, 0.8154015999753028, 0.8332509000319988, 0.8506720999721438, 0.8668097000336275, 0.8827301999554038, 0.9011107999831438, 0.9157280999934301, 0.9323756999801844, 0.9496694999979809, 0.9652900999644771, 0.9817080999491736, 0.9978101999731734, 1.016599699971266, 1.0317981999833137, 1.0488092999439687, 1.0651440999936312, 1.0818191999569535, 1.0986082999734208, 1.11688139999751, 1.1320842000423, 1.149546599946916, 1.1657534999540076, 1.1829148000106215, 1.1992134000174701, 1.215463800006546, 1.2316645999671891, 1.2503299999516457, 1.2648800000315532, 1.2831494000274688, 1.2994491000426933, 1.3150499999755993, 1.3318720000097528, 1.348799500032328, 1.3641688999487087, 1.3826501000439748, 1.3986618999624625, 1.414989999961108]
S09;16;0;0;1;False;3000;True;;8;24.13146849267243;drag;L;6.8032084;2.6078966;20.97;7.29;1.5486021999968216;1.5487036000704393;1685700900.15378;1685700900.1729176;1685700900.926473;1685700901.429792;1685700904.429639;1685700905.9779797;[0.0, 0.0, 0.0, 0.0, 0.0, 0.0, 0.0, 0.0, 0.0, 0.0, 0.0, 0.0, 0.0, 0.0, 0.0, 0.0, 0.0, 0.0, 0.0, 0.0, 0.0, 0.0, 0.0, 0.0, 0.0, 0.0, 0.0, 0.0, 0.0, 0.0, 1.417335, 2.211043, 3.1181371, 3.5433376, 3.996885, 4.1386185, 4.2803516, 4.3937387, 4.478779, 4.5354724, 4.648859, 4.7055526, 4.762246, 4.875633, 4.960673, 5.0740595, 5.1024065, 5.1591, 5.215793, 5.2724867, 5.4425664, 5.5843005, 5.697687, 5.811074, 5.924461, 5.981154, 6.0661945, 6.1228876, 6.151234, 6.2079277, 6.2362742, 6.264621, 6.264621, 6.292968, 6.321315, 6.321315, 6.3496614, 6.378008, 6.4063544, 6.434701, 6.491395, 6.5197415, 6.5197415, 6.548088, 6.548088, 6.548088, 6.5764346, 6.5764346, 6.6047816, 6.633128, 6.6614747, 6.6614747, 6.6898212, 6.7181687, 6.7181687, 6.7181687, 6.774862, 6.774862, 6.8032084, 6.8032084, 6.8032084, 6.8032084];[0.0, 0.0, 0.0, 0.0, 0.0, 0.0, 0.0, 0.0, 0.0, 0.0, 0.0, 0.0, 0.0, 0.0, 0.0, 0.0, 0.0, 0.0, 0.0, 0.0, 0.0, 0.0, 0.0, 0.0, 0.0, 0.0, 0.0, 0.0, 0.0, 0.0, 0.39685383, 0.56693405, 0.76536095, 0.79370767, 0.85040104, 0.87874776, 0.9070944, 0.93544114, 0.93544114, 0.9921345, 1.0488279, 1.0488279, 1.1055214, 1.1622148, 1.2189082, 1.2756016, 1.332295, 1.3606416, 1.417335, 1.4740285, 1.6157619, 1.7291489, 1.7858423, 1.8708823, 1.899229, 1.899229, 1.899229, 1.899229, 1.899229, 1.899229, 1.899229, 1.899229, 1.899229, 1.9275757, 1.9559225, 1.984269, 2.012616, 2.0409625, 2.0976558, 2.1543493, 2.2393894, 2.2677362, 2.2960827, 2.3244295, 2.3527763, 2.3527763, 2.381123, 2.4094696, 2.4094696, 2.4378164, 2.4378164, 2.466163, 2.466163, 2.4945097, 2.5228565, 2.5228565, 2.5512033, 2.5512033, 2.57955, 2.57955, 2.6078966, 2.6078966];[0.005551100010052323, 0.02998340001795441, 0.05147120007313788, 0.06634979997761548, 0.08320570003706962, 0.09917559998575598, 0.11737400002311915, 0.13202040002215654, 0.15118300006724894, 0.1652409000089392, 0.182944200001657, 0.19861840002704412, 0.21659279998857528, 0.23224130005110055, 0.2500035000266507, 0.26667969999834895, 0.2839083999861032, 0.299125500023365, 0.3166661000577733, 0.332822100026533, 0.34934610000345856, 0.3660010000457987, 0.38307850004639477, 0.39981239999178797, 0.41693509998731315, 0.4316753000020981, 0.4491207000100985, 0.4661444000666961, 0.4835644999984652, 0.49876760004553944, 0.516140199964866, 0.5319803999736905, 0.549742600065656, 0.5650825999910012, 0.5838939000386745, 0.5987187999999151, 0.6162717000115663, 0.6331975000211969, 0.650836699991487, 0.6657692000735551, 0.6835404000012204, 0.6987448000581935, 0.7175071999663487, 0.732716100057587, 0.7495902000227943, 0.7673637999687344, 0.7817957999650389, 0.7993867000332102, 0.8168613000307232, 0.8319330000085756, 0.852668400038965, 0.865598600008525, 0.8830650000600144, 0.8987165000289679, 0.9152159000514075, 0.9319555000402033, 0.9494766000425443, 0.9655525999842212, 0.981502200011164, 0.9986578000243753, 1.017059399979189, 1.030890200054273, 1.048774000024423, 1.0671382000437006, 1.0821583999786526, 1.0985521000111476, 1.117873499984853, 1.1321791000664234, 1.1495177000761032, 1.166098100016825, 1.182722800062038, 1.2007068999810144, 1.21508990006987, 1.2319942000322044, 1.2514034999767318, 1.2647990999976173, 1.284019000013359, 1.298722399980761, 1.315290900063701, 1.3320172000676394, 1.3494241000153124, 1.3655531000113115, 1.3829169999808073, 1.398735300055705, 1.417033400037326, 1.4315750000532717, 1.4496699000010267, 1.4649686999619007, 1.4828963000327349, 1.4980420999927446, 1.5167993999784812, 1.5320093999616802]
S09;17;0;0;1;False;1000;True;;8;-8.506382298166873;drag;L;6.9732885;-1.2472548;-10.14;7.08;1.4485301999375224;1.448699799948372;1685700906.8257906;1685700906.8387547;1685700907.5942967;1685700908.0955715;1685700909.0780928;1685700910.5270875;[0.0, 0.0, 0.0, 0.0, 0.0, 0.0, 0.0, 0.0, 0.0, 0.0, 0.0, 0.0, 0.0, 0.0, 0.0, 0.0, 0.0, 0.0, 0.0, 0.0, 0.0, 0.0, 0.0, 0.0, 0.0, 0.0, 0.0, 0.0, 0.0, 0.0, 0.0, 0.0, 0.0, 0.65197414, 1.6441087, 2.2677362, 2.9764037, 3.2882173, 3.4866443, 3.6567245, 3.7417645, 3.798458, 3.8551514, 3.911845, 4.025232, 4.1386185, 4.2803516, 4.3937387, 4.4504323, 4.5071254, 4.563819, 4.620512, 4.932326, 5.215793, 5.4425664, 5.697687, 5.782727, 5.981154, 6.094541, 6.2079277, 6.292968, 6.3496614, 6.4063544, 6.4630475, 6.5197415, 6.633128, 6.6898212, 6.7465153, 6.8032084, 6.831555, 6.831555, 6.8599014, 6.8599014, 6.9165955, 6.9165955, 6.9165955, 6.944942, 6.944942, 6.944942, 6.944942, 6.944942, 6.944942, 6.9732885, 6.9732885, 6.9732885, 6.9732885, 6.9732885];[0.0, 0.0, 0.0, 0.0, 0.0, 0.0, 0.0, 0.0, 0.0, 0.0, 0.0, 0.0, 0.0, 0.0, 0.0, 0.0, 0.0, 0.0, 0.0, 0.0, 0.0, 0.0, 0.0, 0.0, 0.0, 0.0, 0.0, 0.0, 0.0, 0.0, 0.0, 0.0, 0.0, -0.0850401, -0.3401604, -0.53858733, -0.73701423, -0.8220543, -0.87874776, -0.9070944, -0.9070944, -0.9070944, -0.9070944, -0.9070944, -0.9070944, -0.93544114, -0.96378785, -0.96378785, -0.9921345, -0.9921345, -1.0204812, -1.0204812, -1.0771747, -1.1055214, -1.1338681, -1.1905615, -1.2189082, -1.2756016, -1.3039483, -1.332295, -1.3606416, -1.3606416, -1.3606416, -1.3606416, -1.3889884, -1.3889884, -1.3889884, -1.3889884, -1.3889884, -1.3889884, -1.3889884, -1.3889884, -1.3889884, -1.3889884, -1.3889884, -1.3889884, -1.3889884, -1.3606416, -1.3606416, -1.332295, -1.3039483, -1.3039483, -1.2756016, -1.2756016, -1.2756016, -1.2472548, -1.2472548];[0.005272399983368814, 0.016685600043274462, 0.03332589997444302, 0.05070809996686876, 0.06835670000873506, 0.08475609996821731, 0.10139610001351684, 0.11868089996278286, 0.13509090000297874, 0.15078989998437464, 0.16798539995215833, 0.186571600032039, 0.20002150000073016, 0.21880110003985465, 0.2328817000379786, 0.2518061000155285, 0.26662989996839315, 0.2833266999805346, 0.3001486000139266, 0.31701120000798255, 0.33408980001695454, 0.35126949998084456, 0.36740310001187027, 0.38525499997194856, 0.4016521000303328, 0.4178125000325963, 0.4340552999638021, 0.45148849999532104, 0.46709159994497895, 0.4857869000406936, 0.5000425999751315, 0.5177496999967843, 0.5335542999673635, 0.5515897000441328, 0.5662254999624565, 0.5847783000208437, 0.6005355999805033, 0.6170473999809474, 0.6340798999881372, 0.6505774999968708, 0.6692680999403819, 0.6842575999908149, 0.7006091000512242, 0.7159998000133783, 0.7320553000317886, 0.7507548000430688, 0.7686114000389352, 0.7827851000474766, 0.8003093999577686, 0.8181215999647975, 0.8334334000246599, 0.8511811000062153, 0.8665079999482259, 0.8847708000103012, 0.9001038999995217, 0.9167164999525994, 0.9327607000013813, 0.950014999951236, 0.9644083000021055, 0.9838980999775231, 0.9992561000399292, 1.0170265999622643, 1.0341812999686226, 1.0509437000146136, 1.066390100051649, 1.083913099952042, 1.1002444999758154, 1.1197768000420183, 1.1335750999860466, 1.1504700999939814, 1.1671942999819294, 1.1837942999554798, 1.1998931999551132, 1.2177410000003874, 1.2326902999775484, 1.2507247000467032, 1.2654211999615654, 1.2840388000477105, 1.3003130999859422, 1.3172442000359297, 1.3338371999561787, 1.3507774999598041, 1.3679065000033006, 1.3847811999730766, 1.399188800016418, 1.4182899999432266, 1.4327558999648318]
S09;18;0;0;1;False;3000;True;;8;-172.46594584282442;drag;L;-6.292968;-1.8708823;-163.44;6.57;1.3977429000660777;1.3981833999278024;1685700911.3817308;1685700911.388791;1685700912.1439915;1685700912.646647;1685700915.6439373;1685700917.0419886;[-0.0850401, -0.3118137, -1.3606416, -1.7291489, -1.9559225, -2.0409625, -2.0693092, -2.0976558, -2.1260026, -2.1260026, -2.1543493, -2.1543493, -2.1543493, -2.1543493, -2.1543493, -2.1543493, -2.1543493, -2.1543493, -2.211043, -2.2960827, -2.6362433, -3.146484, -4.2236586, -4.7055526, -5.045713, -5.1874466, -5.32918, -5.3575263, -5.3858733, -5.41422, -5.41422, -5.4425664, -5.4425664, -5.4425664, -5.4992604, -5.527607, -5.5843005, -5.612647, -5.697687, -5.75438, -5.782727, -5.896114, -6.0095005, -6.094541, -6.2079277, -6.264621, -6.321315, -6.3496614, -6.378008, -6.378008, -6.4063544, -6.4063544, -6.4063544, -6.4063544, -6.4063544, -6.4063544, -6.4063544, -6.4063544, -6.378008, -6.378008, -6.378008, -6.3496614, -6.3496614, -6.3496614, -6.321315, -6.292968, -6.292968, -6.292968, -6.292968, -6.292968, -6.292968, -6.292968, -6.292968, -6.292968, -6.292968, -6.292968, -6.292968, -6.292968, -6.292968, -6.292968, -6.292968, -6.292968, -6.292968, -6.292968];[0.0, -0.0566934, -0.3118137, -0.39685383, -0.42520052, -0.4535472, -0.4535472, -0.4535472, -0.4535472, -0.4535472, -0.4535472, -0.4535472, -0.4535472, -0.4535472, -0.4535472, -0.4535472, -0.4535472, -0.48189393, -0.48189393, -0.5102406, -0.65197414, -0.8220543, -1.2472548, -1.417335, -1.5590686, -1.6157619, -1.6724553, -1.6724553, -1.7008021, -1.7008021, -1.7008021, -1.7291489, -1.7291489, -1.7291489, -1.7574955, -1.7574955, -1.7574955, -1.7574955, -1.7858423, -1.7858423, -1.7858423, -1.8141888, -1.8425356, -1.8425356, -1.8425356, -1.8708823, -1.8708823, -1.8708823, -1.8708823, -1.8708823, -1.8708823, -1.8708823, -1.8708823, -1.8708823, -1.8708823, -1.8708823, -1.8708823, -1.8708823, -1.8708823, -1.8708823, -1.8708823, -1.8708823, -1.8708823, -1.8708823, -1.8708823, -1.8708823, -1.8708823, -1.8708823, -1.8708823, -1.8708823, -1.8708823, -1.8708823, -1.8708823, -1.8708823, -1.8708823, -1.8708823, -1.8708823, -1.8708823, -1.8708823, -1.8708823, -1.8708823, -1.8708823, -1.8708823, -1.8708823];[0.004370099981315434, 0.01560559996869415, 0.03360730002168566, 0.05068899993784726, 0.06785520003177226, 0.08326089999172837, 0.10196570004336536, 0.1164796999655664, 0.13335679995361716, 0.1507668000413105, 0.16795189992990345, 0.18479750002734363, 0.19999889994505793, 0.21623859996907413, 0.23470589995849878, 0.24980510002933443, 0.26895149995107204, 0.28311029996257275, 0.3014214000431821, 0.31648549996316433, 0.3331523999804631, 0.34881639992818236, 0.36873109999578446, 0.38298090000171214, 0.40020669996738434, 0.4164434999693185, 0.4348085999954492, 0.45157309994101524, 0.46647320000920445, 0.4830181000288576, 0.5008730000117794, 0.5172224999405444, 0.5332549000158906, 0.5496102999895811, 0.5671612999867648, 0.5846807999769226, 0.6014351999619976, 0.6169413999887183, 0.6359903999837115, 0.6497868000296876, 0.6675517000257969, 0.6848911000415683, 0.7014083999674767, 0.7178725999547169, 0.7338886000216007, 0.7495863999938592, 0.7677861000411212, 0.7837031999370083, 0.8005459000123665, 0.8179017000366002, 0.8342816999647766, 0.8498323999810964, 0.8680463000200689, 0.8824809000361711, 0.9014335999963805, 0.9172822999535128, 0.9334904999705032, 0.950375400017947, 0.9675565999932587, 0.9823187999427319, 1.000057499972172, 1.0165360999526456, 1.034505799994804, 1.0496410999912769, 1.069009599974379, 1.0846944999648258, 1.10042309993878, 1.1164156999439, 1.131862199981697, 1.1486155999591574, 1.1681481000268832, 1.1835645999526605, 1.200950299971737, 1.2174718999303877, 1.2337636000011116, 1.2497724000131711, 1.267703099991195, 1.283444199943915, 1.3015908999368548, 1.3176307999528944, 1.3337989000137895, 1.3500808000098914, 1.366815699962899, 1.3832609000382945]
S09;19;0;0;1;False;1000;True;;8;16.88664889202635;drag;L;7.143369;2.2393894;17.41;7.49;1.7509327000007033;1.7510058000916615;1685700917.88006;1685700917.8888204;1685700918.6437278;1685700919.144512;1685700920.125365;1685700921.8767712;[0.0, 0.0, 0.0, 0.0, 0.0, 0.0, 0.0, 0.0, 0.0, 0.0, 0.0, 0.0, 0.0, 0.0, 0.0, 0.0, 0.0, 0.0, 0.0, 0.0, 0.0, 0.0, 0.0, 0.0, 0.0, 0.0, 0.0, 0.0, 0.0, 0.0, 0.0, 0.0, 0.0, 0.0, 0.0, 0.0, 0.6236274, 1.4456817, 2.4094696, 3.0047503, 3.8268046, 4.1386185, 4.3086987, 4.5071254, 4.5921655, 4.7055526, 4.7905927, 4.875633, 4.960673, 5.1024065, 5.215793, 5.32918, 5.3858733, 5.41422, 5.4709134, 5.5843005, 5.7260337, 5.924461, 6.037847, 6.1228876, 6.1795807, 6.264621, 6.3496614, 6.4063544, 6.4630475, 6.548088, 6.5764346, 6.633128, 6.6898212, 6.7181687, 6.7465153, 6.8032084, 6.8032084, 6.831555, 6.831555, 6.8599014, 6.8599014, 6.9165955, 6.944942, 6.9732885, 7.0016356, 7.0583286, 7.0583286, 7.086675, 7.086675, 7.1150217, 7.1150217, 7.143369, 7.143369, 7.143369, 7.143369, 7.143369, 7.143369, 7.143369, 7.143369, 7.143369, 7.143369, 7.143369, 7.143369, 7.143369, 7.143369, 7.143369, 7.143369, 7.143369, 7.143369];[0.0, 0.0, 0.0, 0.0, 0.0, 0.0, 0.0, 0.0, 0.0, 0.0, 0.0, 0.0, 0.0, 0.0, 0.0, 0.0, 0.0, 0.0, 0.0, 0.0, 0.0, 0.0, 0.0, 0.0, 0.0, 0.0, 0.0, 0.0, 0.0, 0.0, 0.0, 0.0, 0.0, 0.0, 0.0, 0.0, 0.0566934, 0.2551203, 0.36850712, 0.42520052, 0.48189393, 0.5102406, 0.5102406, 0.53858733, 0.53858733, 0.53858733, 0.59528077, 0.6236274, 0.6803208, 0.79370767, 0.87874776, 0.93544114, 0.9921345, 1.0204812, 1.0488279, 1.1622148, 1.2756016, 1.4740285, 1.5307219, 1.6157619, 1.6441087, 1.7008021, 1.7574955, 1.7574955, 1.8141888, 1.8425356, 1.8708823, 1.9275757, 1.9275757, 1.9559225, 2.012616, 2.012616, 2.0409625, 2.0409625, 2.0409625, 2.0409625, 2.0693092, 2.0693092, 2.0693092, 2.0693092, 2.0693092, 2.0693092, 2.0976558, 2.0976558, 2.1260026, 2.1260026, 2.1260026, 2.1260026, 2.1260026, 2.1260026, 2.1260026, 2.1260026, 2.1260026, 2.1260026, 2.1543493, 2.1543493, 2.1543493, 2.182696, 2.182696, 2.182696, 2.211043, 2.2393894, 2.2393894, 2.2393894, 2.2393894];[0.0031874000560492277, 0.020094600040465593, 0.035683900001458824, 0.05319560004863888, 0.06909440003801137, 0.0870315000647679, 0.10193250002339482, 0.11982480005826801, 0.13517280004452914, 0.15192269999533892, 0.16848550003487617, 0.18572200008202344, 0.20227830007206649, 0.21911940001882613, 0.23483199998736382, 0.2521681999787688, 0.26915030006784946, 0.28734939999412745, 0.3021388000342995, 0.31940070004202425, 0.33474600000772625, 0.352128200000152, 0.3690074000041932, 0.38543790008407086, 0.40155030007008463, 0.41923410003073514, 0.43509699997957796, 0.45308970008045435, 0.4694391000084579, 0.4857073000166565, 0.5016456000739709, 0.5186933000804856, 0.5348773000296205, 0.5521878000581637, 0.5680410000495613, 0.5849042000481859, 0.6026501000160351, 0.6192172000883147, 0.6342098000459373, 0.6523820000002161, 0.6699409000575542, 0.6857277000090107, 0.7018679000902921, 0.7205246000085026, 0.7348674000240862, 0.7547140000388026, 0.7678386000916362, 0.784948299988173, 0.8017435000510886, 0.8183837999822572, 0.834058600012213, 0.8530929000116885, 0.8687528000446036, 0.8866058000130579, 0.9017787000630051, 0.9186054000165313, 0.9358645000029355, 0.9513250000309199, 0.9685365000041202, 0.9860887000104412, 1.0015118999872357, 1.018482599989511, 1.0345920000690967, 1.0522817000746727, 1.068906300002709, 1.0860126999905333, 1.100839800084941, 1.1201888000359759, 1.1346034000162035, 1.1516785999992862, 1.1688381000421941, 1.1859812000766397, 1.2015300000784919, 1.2184239000780508, 1.2343169000232592, 1.2534793000668287, 1.2673117000376806, 1.285591799998656, 1.3014279000926763, 1.318201299989596, 1.3355849999934435, 1.3516771000577137, 1.3692889000521973, 1.385473100002855, 1.401137600070797, 1.420259700040333, 1.434489900013432, 1.4527049000607803, 1.4696085000177845, 1.4857023999793455, 1.5009590000845492, 1.5198097000829875, 1.5342933000065386, 1.5539008000632748, 1.5680712000466883, 1.5866015000501648, 1.6027974000899121, 1.6190196999814361, 1.635299100074917, 1.6530302000464872, 1.6679889999795705, 1.6848872000118718, 1.7011672999942675, 1.719347900012508, 1.7363923999946564]
S09;20;0;0;1;False;3000;True;;8;-94.59211613611018;drag;L;-1.6157619;-7.6252627;-101.96;7.79;1.8346595999319106;1.8347319000167772;1685700922.5400133;1685700922.5549586;1685700923.308058;1685700923.808414;1685700926.8093836;1685700928.6440458;[0.0, 0.0, 0.0, 0.0, 0.0, 0.0, 0.0, 0.0, 0.0, 0.0, 0.0, 0.0, 0.0, 0.0, 0.0, 0.0, 0.0, 0.0, 0.0, 0.0, 0.0, 0.0, 0.0, 0.0, 0.0, 0.0, 0.0, 0.0, 0.0, 0.0, 0.0, 0.0, -0.14173351, -0.3118137, -0.3401604, -0.42520052, -0.48189393, -0.5102406, -0.56693405, -0.6236274, -0.6236274, -0.65197414, -0.65197414, -0.6803208, -0.6803208, -0.73701423, -0.73701423, -0.76536095, -0.8220543, -0.87874776, -0.9070944, -0.93544114, -0.96378785, -0.9921345, -1.0204812, -1.0488279, -1.1055214, -1.1055214, -1.1338681, -1.1338681, -1.1622148, -1.1622148, -1.1905615, -1.1905615, -1.2189082, -1.2472548, -1.2472548, -1.2756016, -1.2756016, -1.332295, -1.332295, -1.3606416, -1.3606416, -1.3889884, -1.417335, -1.417335, -1.4456817, -1.4456817, -1.4740285, -1.4740285, -1.5023751, -1.5023751, -1.5307219, -1.5307219, -1.5307219, -1.5590686, -1.5590686, -1.5590686, -1.5590686, -1.5590686, -1.5590686, -1.5590686, -1.5874153, -1.5874153, -1.5874153, -1.5874153, -1.5874153, -1.5874153, -1.5874153, -1.5874153, -1.5874153, -1.5874153, -1.5874153, -1.5874153, -1.5874153, -1.5874153, -1.6157619, -1.6157619, -1.6157619, -1.6157619];[0.0, 0.0, 0.0, 0.0, 0.0, 0.0, 0.0, 0.0, 0.0, 0.0, 0.0, 0.0, 0.0, 0.0, 0.0, 0.0, 0.0, 0.0, 0.0, 0.0, 0.0, 0.0, 0.0, 0.0, 0.0, 0.0, 0.0, 0.0, 0.0, 0.0, 0.0, 0.0, -0.87874776, -2.2677362, -3.2315238, -3.8268046, -4.5354724, -4.960673, -5.3575263, -6.0095005, -6.2362742, -6.4063544, -6.491395, -6.5764346, -6.6614747, -6.7181687, -6.774862, -6.831555, -6.944942, -7.0016356, -7.0583286, -7.086675, -7.143369, -7.1717157, -7.2000623, -7.228409, -7.228409, -7.2567554, -7.285102, -7.285102, -7.285102, -7.285102, -7.313449, -7.313449, -7.313449, -7.313449, -7.313449, -7.313449, -7.313449, -7.313449, -7.313449, -7.313449, -7.313449, -7.313449, -7.313449, -7.313449, -7.313449, -7.313449, -7.313449, -7.313449, -7.313449, -7.313449, -7.341796, -7.341796, -7.341796, -7.341796, -7.3701425, -7.3701425, -7.3701425, -7.3701425, -7.3984895, -7.426836, -7.426836, -7.4551826, -7.4551826, -7.4551826, -7.4551826, -7.4551826, -7.4551826, -7.483529, -7.483529, -7.5118756, -7.5118756, -7.540222, -7.540222, -7.540222, -7.5685697, -7.596916, -7.596916, -7.6252627];[0.004797999979928136, 0.01762189995497465, 0.035843399935401976, 0.051893800031393766, 0.07084499998018146, 0.08598910004366189, 0.10245110001415014, 0.1186588000273332, 0.13570889993570745, 0.15165180002804846, 0.16903450002428144, 0.18524499994236976, 0.2016233999747783, 0.217987300013192, 0.23620010004378855, 0.2505716000450775, 0.26874400000087917, 0.2856432000407949, 0.301526700030081, 0.31688559998292476, 0.3341307999799028, 0.35072119999676943, 0.36800050002057105, 0.38427399995271116, 0.4020419999724254, 0.41813280002679676, 0.43532749998848885, 0.4513499999884516, 0.46906070003751665, 0.4837612999835983, 0.5014946999726817, 0.5181567999534309, 0.5353746999753639, 0.5519402000354603, 0.5686900999862701, 0.5861578000476584, 0.602469600038603, 0.6161572999553755, 0.6346080999355763, 0.6518561999546364, 0.6684780999785289, 0.6871984000317752, 0.7009237000020221, 0.7178923999890685, 0.7346717000473291, 0.7501319999573752, 0.7705448999768123, 0.7832328999647871, 0.8007595000090078, 0.8168752000201494, 0.8344960999675095, 0.8510438000084832, 0.8702111999737099, 0.8840223000152037, 0.9026454000268131, 0.9185058999573812, 0.935579500044696, 0.9508231999352574, 0.968038099934347, 0.985022300039418, 1.003258900018409, 1.0170776000013575, 1.0379283999791369, 1.0507021000375971, 1.069139700033702, 1.0879282000241801, 1.1008477000286803, 1.1198133999714628, 1.1341866999864578, 1.150919400039129, 1.1671571000479162, 1.1849457999924198, 1.2012719999765977, 1.2189265999477357, 1.2345571999903768, 1.2505137999542058, 1.2691760000307113, 1.2840991000412032, 1.3030183999799192, 1.3184950000140816, 1.3350034999893978, 1.3526141999755055, 1.3685932999942452, 1.3844482999993488, 1.4015391999855638, 1.4174460000358522, 1.4346974999643862, 1.451071299961768, 1.4681159999454394, 1.486026700004004, 1.502047699992545, 1.5171566000208259, 1.5353801000164822, 1.5510242000455037, 1.569318399997428, 1.5845890999771655, 1.6017980000469834, 1.6195219999644905, 1.634912500041537, 1.6510134999407455, 1.6690777000039816, 1.6851695999503136, 1.7027146000182256, 1.7176343000028282, 1.7345148000167683, 1.7510598000371829, 1.7682580000255257, 1.7839478999376297, 1.8018888999940827, 1.818388900021091]
S09;21;0;0;1;False;1000;True;;8;-77.09524963839814;drag;L;1.9275757;-6.944942;-74.49;7.21;1.4837830000324175;1.4838809000793844;1685700929.3931909;1685700929.4047894;1685700930.1602373;1685700930.6618645;1685700931.64282;1685700933.1258144;[0.0, 0.0, 0.0, 0.0, 0.0, 0.0, 0.0, 0.0, 0.0, 0.0, 0.0, 0.0, 0.0, 0.0, 0.0, 0.0, 0.0, 0.0, 0.0, 0.0, 0.0, 0.0, 0.0, 0.0, 0.0, 0.0, 0.0, 0.0, 0.0, 0.0, 0.0, 0.0, 0.0, 0.0, 0.0, 0.0, 0.0, 0.0, 0.0, 0.0, 0.0, 0.0, 0.0, 0.48189393, 0.59528077, 0.79370767, 0.9070944, 0.93544114, 0.96378785, 1.0204812, 1.0771747, 1.1622148, 1.2472548, 1.3606416, 1.4456817, 1.5590686, 1.6441087, 1.7574955, 1.8141888, 1.8425356, 1.8708823, 1.899229, 1.899229, 1.9275757, 1.9275757, 1.9275757, 1.9275757, 1.9275757, 1.9275757, 1.9559225, 1.9559225, 1.9559225, 1.9559225, 1.9559225, 1.9559225, 1.9559225, 1.9559225, 1.9559225, 1.9559225, 1.9559225, 1.9559225, 1.9559225, 1.9559225, 1.9559225, 1.9559225, 1.9559225, 1.9275757, 1.9275757, 1.9275757];[0.0, 0.0, 0.0, 0.0, 0.0, 0.0, 0.0, 0.0, 0.0, 0.0, 0.0, 0.0, 0.0, 0.0, 0.0, 0.0, 0.0, 0.0, 0.0, 0.0, 0.0, 0.0, 0.0, 0.0, 0.0, 0.0, 0.0, 0.0, 0.0, 0.0, 0.0, 0.0, 0.0, 0.0, 0.0, 0.0, 0.0, 0.0, 0.0, 0.0, 0.0, 0.0, 0.0, -2.3527763, -2.8913634, -4.166965, -4.875633, -5.0740595, -5.215793, -5.3575263, -5.41422, -5.5559535, -5.66934, -5.782727, -5.896114, -6.037847, -6.1228876, -6.264621, -6.321315, -6.4063544, -6.4630475, -6.491395, -6.5197415, -6.548088, -6.5764346, -6.5764346, -6.6047816, -6.6047816, -6.633128, -6.6614747, -6.6614747, -6.6898212, -6.6898212, -6.7465153, -6.7465153, -6.774862, -6.774862, -6.8032084, -6.8032084, -6.831555, -6.8599014, -6.8599014, -6.888248, -6.888248, -6.9165955, -6.9165955, -6.944942, -6.944942, -6.944942];[0.004466800019145012, 0.0190388000337407, 0.034285300062038004, 0.054743300075642765, 0.06768990005366504, 0.08501350006554276, 0.10085909999907017, 0.11849330004770309, 0.13395639997906983, 0.15287059999536723, 0.16744980006478727, 0.1846163000445813, 0.20055040006991476, 0.21783209999557585, 0.23378200002480298, 0.25123890000395477, 0.2680093999952078, 0.2860649999929592, 0.30102600005920976, 0.31863270001485944, 0.3345389000605792, 0.3517768000019714, 0.36818930006120354, 0.38577210006769747, 0.40074700000695884, 0.4196131000062451, 0.43503459997009486, 0.45299340004567057, 0.4685831000097096, 0.48578420002013445, 0.5018625999800861, 0.5189401999814436, 0.534979599993676, 0.5522655000677332, 0.567222599987872, 0.586681800079532, 0.6019187000347301, 0.619247000082396, 0.6346100000664592, 0.6522837000666186, 0.6670467000221834, 0.6853134999983013, 0.7018379999790341, 0.7223655000561848, 0.7331686000106856, 0.7518615999724716, 0.7701213000109419, 0.7844695000676438, 0.7999381000408903, 0.8181594000197947, 0.8338450000155717, 0.8537137000821531, 0.8675914000486955, 0.8849240000126883, 0.9012623999733478, 0.9172730999998748, 0.934060400002636, 0.9511393000138924, 0.9684031000360847, 0.9849935000529513, 1.0005044999998063, 1.0182679999852553, 1.0347094000317156, 1.052019500057213, 1.0693184999981895, 1.0841238000430167, 1.1006966000422835, 1.1186101000057533, 1.1332288000267, 1.152169100008905, 1.166965499985963, 1.184919000021182, 1.2004676000215113, 1.2191474999999627, 1.2341370000503957, 1.2526581999845803, 1.2671856000088155, 1.2851156999822706, 1.3010980000253767, 1.3187097000190988, 1.334901100024581, 1.3518284000456333, 1.368081200052984, 1.3860658999765292, 1.4005904999794438, 1.4181712999707088, 1.4364181000273675, 1.4506543000461534, 1.4676223000278696]
S09;22;0;0;1;False;3000;True;;8;137.6811372689033;drag;L;-4.648859;4.648859;135.0;6.57;1.3134470999939367;1.3135490999557078;1685700933.8990388;1685700933.903578;1685700934.6595793;1685700935.1606932;1685700938.1608653;1685700939.4749637;[0.0, 0.0, 0.0, 0.0, 0.0, 0.0, 0.0, 0.0, 0.0, 0.0, 0.0, 0.0, 0.0, 0.0, 0.0, 0.0, 0.0, 0.0, 0.0, 0.0, 0.0, 0.0, 0.0, 0.0, 0.0, 0.0, 0.0, 0.0, -1.0771747, -1.7008021, -2.182696, -2.4094696, -2.6362433, -2.7496302, -2.83467, -2.9197102, -2.9764037, -3.0047503, -3.0614438, -3.2031772, -3.4016042, -3.8268046, -4.025232, -4.1386185, -4.1953115, -4.252005, -4.2803516, -4.3086987, -4.3086987, -4.337045, -4.365392, -4.365392, -4.3937387, -4.422086, -4.4504323, -4.478779, -4.5071254, -4.5354724, -4.5354724, -4.563819, -4.5921655, -4.5921655, -4.5921655, -4.5921655, -4.5921655, -4.5921655, -4.5921655, -4.5921655, -4.5921655, -4.5921655, -4.620512, -4.620512, -4.620512, -4.620512, -4.620512, -4.620512, -4.620512, -4.648859];[0.0, 0.0, 0.0, 0.0, 0.0, 0.0, 0.0, 0.0, 0.0, 0.0, 0.0, 0.0, 0.0, 0.0, 0.0, 0.0, 0.0, 0.0, 0.0, 0.0, 0.0, 0.0, 0.0, 0.0, 0.0, 0.0, 0.0, 0.0, 0.6236274, 1.1338681, 1.7008021, 1.9559225, 2.3244295, 2.5228565, 2.6929367, 2.8063235, 2.8913634, 2.948057, 3.0330973, 3.2031772, 3.4582977, 3.8551514, 4.025232, 4.1386185, 4.1953115, 4.2236586, 4.2236586, 4.252005, 4.252005, 4.252005, 4.252005, 4.252005, 4.2803516, 4.2803516, 4.3086987, 4.3086987, 4.3086987, 4.337045, 4.337045, 4.337045, 4.337045, 4.337045, 4.365392, 4.3937387, 4.3937387, 4.422086, 4.422086, 4.4504323, 4.5071254, 4.5071254, 4.5354724, 4.563819, 4.5921655, 4.5921655, 4.620512, 4.620512, 4.648859, 4.648859];[0.00484479998704046, 0.030080099939368665, 0.0506398999132216, 0.06479610002133995, 0.08226089994423091, 0.0988569000037387, 0.11715309997089207, 0.13367959996685386, 0.14978330000303686, 0.16643029998522252, 0.18382859998382628, 0.1979465999174863, 0.2177246999926865, 0.23189519997686148, 0.24871620000340044, 0.2653306999709457, 0.2834032999817282, 0.2984458999708295, 0.31708639999851584, 0.3326572999358177, 0.349842399940826, 0.36667759995907545, 0.38163580000400543, 0.3977212000172585, 0.41483199992217124, 0.4312904999824241, 0.44950839993543923, 0.464605399989523, 0.48232549999374896, 0.4983661000151187, 0.5147753999335691, 0.5314110999461263, 0.5489968999754637, 0.566202100017108, 0.5829253999982029, 0.5968538000015542, 0.6153008999535814, 0.6313451000023633, 0.6485075999516994, 0.6649890999542549, 0.6808638999937102, 0.698402600013651, 0.7162967999465764, 0.7315003999974579, 0.7488742999266833, 0.7644492000108585, 0.7823825000086799, 0.7972274000057951, 0.8147530999267474, 0.8307712000096217, 0.8501058999681845, 0.8639387999428436, 0.8827838000142947, 0.8990972000174224, 0.9145416999235749, 0.9313298999331892, 0.9483983999816701, 0.9648123999359086, 0.9831938999705017, 0.9990564999170601, 1.0141394999809563, 1.030814899946563, 1.048248999984935, 1.0652830000035465, 1.0821071999380365, 1.099892899976112, 1.1172990999184549, 1.1313061999389902, 1.1493604999268427, 1.1659580999985337, 1.1824910999275744, 1.1990121999988332, 1.2164137000218034, 1.2310986999655142, 1.249641399946995, 1.2637134999968112, 1.2826668999623507, 1.3000718000112101]
