subj;trial;block;prior;kappa;ct;delay;fix;keypressed;R;T_Angle;resp_mod;choice_x;choice_y;init_resp_angle;choiceAngle;choiceR;RT;MT;ts_b;ts_f;ts_p;ts_d;ts_r;ts_e;m_pos_x;m_pos_y;m_clock
S11;0;0;0;1;False;1000;True;;8;11.860700009214264;drag;L;6.2362742;2.0693092;18.36;6.57;1.9461669999873266;1.9463320000795648;1686065441.1124923;1686065441.1264977;1686065441.8811982;1686065442.383306;1686065443.3671844;1686065445.3141294;[0.0, 0.36850712, 0.9070944, 1.3606416, 1.984269, 3.3732576, 4.478779, 5.1591, 6.2079277, 7.143369, 8.532357, 9.184331, 9.807959, 10.346546, 10.856787, 10.970174, 11.111907, 11.196947, 11.33868, 11.423721, 11.480414, 11.537107, 11.395374, 11.25364, 11.111907, 11.026867, 10.856787, 10.771747, 10.601666, 10.374893, 10.233159, 10.091426, 9.892999, 9.751266, 9.609531, 9.297718, 9.099292, 8.900865, 8.815824, 8.730784, 8.617397, 8.532357, 8.390623, 8.33393, 8.24889, 8.16385, 8.07881, 7.99377, 7.82369, 7.710303, 7.596916, 7.483529, 7.3984895, 7.2567554, 7.1717157, 7.1150217, 6.9732885, 6.9165955, 6.8599014, 6.831555, 6.7465153, 6.7181687, 6.6614747, 6.6614747, 6.633128, 6.6047816, 6.6047816, 6.5764346, 6.548088, 6.548088, 6.5197415, 6.5197415, 6.491395, 6.434701, 6.4063544, 6.3496614, 6.3496614, 6.321315, 6.292968, 6.264621, 6.264621, 6.2362742, 6.2362742, 6.2362742, 6.2362742, 6.2362742, 6.2362742, 6.2362742, 6.2362742, 6.2362742, 6.2362742, 6.2362742, 6.2362742, 6.2362742, 6.2362742, 6.2362742, 6.2362742, 6.2362742, 6.2362742, 6.2362742, 6.2362742, 6.2362742, 6.2362742, 6.2362742, 6.2362742, 6.2362742, 6.2362742, 6.2362742, 6.2362742, 6.2362742, 6.2362742, 6.2362742, 6.2362742, 6.2362742, 6.2362742, 6.2362742];[0.0, 0.6236274, 1.2472548, 1.6724553, 2.2393894, 3.3449106, 4.2236586, 4.733899, 5.4425664, 6.1228876, 7.0583286, 7.483529, 7.9087296, 8.277237, 8.617397, 8.67409, 8.7591305, 8.7874775, 8.7874775, 8.730784, 8.58905, 8.305584, 7.313449, 6.774862, 6.292968, 5.924461, 5.4709134, 5.130753, 4.6772056, 4.081925, 3.6850712, 3.316564, 2.9197102, 2.66459, 2.466163, 2.1543493, 1.9559225, 1.8141888, 1.7291489, 1.7008021, 1.6441087, 1.5874153, 1.5307219, 1.5307219, 1.5023751, 1.4740285, 1.4456817, 1.417335, 1.417335, 1.3889884, 1.3889884, 1.3889884, 1.3889884, 1.3889884, 1.417335, 1.4740285, 1.5590686, 1.6441087, 1.6724553, 1.7008021, 1.7574955, 1.7858423, 1.7858423, 1.8141888, 1.8141888, 1.8425356, 1.8425356, 1.8708823, 1.8708823, 1.899229, 1.9275757, 1.9275757, 1.9559225, 1.9559225, 1.984269, 2.012616, 2.012616, 2.0409625, 2.0409625, 2.0693092, 2.0693092, 2.0693092, 2.0693092, 2.0693092, 2.0693092, 2.0693092, 2.0693092, 2.0693092, 2.0693092, 2.0693092, 2.0693092, 2.0693092, 2.0693092, 2.0693092, 2.0693092, 2.0693092, 2.0693092, 2.0693092, 2.0693092, 2.0693092, 2.0693092, 2.0693092, 2.0693092, 2.0693092, 2.0693092, 2.0693092, 2.0693092, 2.0693092, 2.0693092, 2.0693092, 2.0693092, 2.0693092, 2.0693092, 2.0693092, 2.0693092, 2.0693092];[0.006360700004734099, 0.029766099993139505, 0.05033760005608201, 0.0646055000834167, 0.08207210002001375, 0.10059040004853159, 0.11469509999733418, 0.1318081000354141, 0.1493148000445217, 0.16427360009402037, 0.18433900002855808, 0.1969576000701636, 0.21407510002609342, 0.2306965000461787, 0.24736030003987253, 0.2644671000307426, 0.282253900077194, 0.29792320006527007, 0.3181230000918731, 0.33183200005441904, 0.34850590000860393, 0.36496660008560866, 0.38247599999886006, 0.39836770005058497, 0.4154205000959337, 0.4321932999882847, 0.4504728000611067, 0.4645202000392601, 0.4820613000774756, 0.5006683000829071, 0.5148232000647113, 0.5305884000845253, 0.5485507000703365, 0.56544630008284, 0.5825745000038296, 0.5976324999937788, 0.6159142000833526, 0.6326051000505686, 0.6478614000370726, 0.6650102999992669, 0.683065399993211, 0.6970186000689864, 0.7175391000928357, 0.7311846000375226, 0.7492340999888256, 0.766252400004305, 0.7823301000753418, 0.798246500082314, 0.8172289000358433, 0.8315492999972776, 0.8511196000035852, 0.8643744000000879, 0.8823118000291288, 0.898950400063768, 0.9152965000830591, 0.9298475000541657, 0.9486722000874579, 0.9645721000852063, 0.9824859000509605, 0.9982779000420123, 1.0142119000665843, 1.031090100063011, 1.0491468000691384, 1.0650661999825388, 1.0819668000331149, 1.098276300006546, 1.1163971000351012, 1.1309862000634894, 1.1495330000761896, 1.1665592000354081, 1.1811568000121042, 1.1975993000669405, 1.217832800000906, 1.231094100046903, 1.2502066000597551, 1.2649787000846118, 1.2811819000635296, 1.2972324000438675, 1.3152318000793457, 1.330548300058581, 1.3479573000222445, 1.3638658000854775, 1.3819914000341669, 1.3979121000738814, 1.4150841000955552, 1.4307095999829471, 1.4483354000840336, 1.4644382999977097, 1.4823613000335172, 1.4974897000938654, 1.5156550999963656, 1.5309392000781372, 1.5486683000344783, 1.5647599000949413, 1.5817813000176102, 1.5970029000891373, 1.614821800030768, 1.6311794000212103, 1.6480877000140026, 1.6637972000753507, 1.681143100024201, 1.6963317000772804, 1.7142555000027642, 1.730264800018631, 1.7472336000064388, 1.7642613000934944, 1.7812662000069395, 1.797285999986343, 1.8142654000548646, 1.8304074000334367, 1.8463085000403225, 1.862500400049612, 1.8814988000085577, 1.8975639999844134, 1.9155923000071198, 1.9315868000267074]
S11;1;0;0;1;False;3000;True;;8;-147.4182399496858;drag;L;-6.0095005;-3.316564;-151.11;6.86;3.7162562999874353;3.7164608000312;1686065446.0135174;1686065446.025888;1686065446.7809567;1686065447.281215;1686065450.283447;1686065453.9999583;[0.0, 1.2756016, 2.0409625, 2.3244295, 2.66459, 2.7779768, 2.8630168, 2.9197102, 2.948057, 2.948057, 2.948057, 2.948057, 2.948057, 2.948057, 2.948057, 2.948057, 2.948057, 2.948057, 2.948057, 2.948057, 2.948057, 2.948057, 2.948057, 2.948057, 2.948057, 2.948057, 2.948057, 2.948057, 2.948057, 2.948057, 2.948057, 2.948057, 2.948057, 2.948057, 2.948057, 2.948057, 2.948057, 2.948057, 2.948057, 2.948057, 2.948057, 2.948057, 2.948057, 2.948057, 2.948057, 1.9559225, 1.332295, 0.7086675, 0.39685383, 0.1133868, -0.2267736, -0.5102406, -0.96378785, -1.332295, -1.7574955, -2.2677362, -2.9197102, -3.2315238, -3.6283777, -3.8551514, -4.025232, -4.166965, -4.337045, -4.422086, -4.5354724, -4.5921655, -4.648859, -4.762246, -4.9039793, -4.960673, -5.0740595, -5.1591, -5.2441397, -5.2724867, -5.32918, -5.32918, -5.32918, -5.32918, -5.32918, -5.32918, -5.300833, -5.300833, -5.2441397, -5.2441397, -5.2441397, -5.2441397, -5.2441397, -5.2724867, -5.2724867, -5.2724867, -5.2724867, -5.2724867, -5.300833, -5.300833, -5.32918, -5.3575263, -5.41422, -5.4425664, -5.4709134, -5.4992604, -5.527607, -5.527607, -5.527607, -5.527607, -5.527607, -5.527607, -5.527607, -5.527607, -5.5559535, -5.5559535, -5.5843005, -5.612647, -5.612647, -5.6409936, -5.6409936, -5.6409936, -5.6409936, -5.6409936, -5.6409936, -5.66934, -5.697687, -5.697687, -5.75438, -5.75438, -5.782727, -5.782727, -5.811074, -5.811074, -5.811074, -5.811074, -5.811074, -5.811074, -5.811074, -5.811074, -5.811074, -5.811074, -5.811074, -5.811074, -5.811074, -5.811074, -5.811074, -5.811074, -5.811074, -5.811074, -5.811074, -5.811074, -5.811074, -5.811074, -5.811074, -5.811074, -5.811074, -5.811074, -5.811074, -5.811074, -5.811074, -5.811074, -5.811074, -5.811074, -5.811074, -5.811074, -5.811074, -5.811074, -5.811074, -5.811074, -5.811074, -5.811074, -5.811074, -5.811074, -5.811074, -5.811074, -5.811074, -5.811074, -5.811074, -5.811074, -5.811074, -5.811074, -5.811074, -5.811074, -5.811074, -5.811074, -5.811074, -5.811074, -5.811074, -5.811074, -5.811074, -5.811074, -5.8677673, -5.8677673, -5.8677673, -5.8677673, -5.8677673, -5.8677673, -5.8677673, -5.8677673, -5.896114, -5.924461, -5.9528074, -6.0095005, -6.0095005, -6.0095005, -6.0095005, -6.0095005, -6.0095005, -6.0095005, -6.0095005, -6.0095005, -6.0095005, -6.0095005, -6.0095005, -6.0095005, -6.0095005, -6.0095005, -6.0095005, -6.0095005, -6.0095005, -6.0095005, -6.0095005, -6.0095005, -6.0095005, -6.0095005, -6.0095005, -6.0095005];[0.0, 2.57955, 3.8551514, 4.4504323, 5.1591, 5.4992604, 5.66934, 5.896114, 5.981154, 6.037847, 6.0661945, 6.0661945, 6.0661945, 6.0661945, 6.0661945, 6.0661945, 6.0661945, 6.0661945, 6.0661945, 6.0661945, 6.0661945, 6.0661945, 6.0661945, 6.0661945, 6.0661945, 6.0661945, 6.0661945, 6.0661945, 6.0661945, 6.0661945, 6.0661945, 6.0661945, 6.0661945, 6.0661945, 6.0661945, 6.0661945, 6.0661945, 6.0661945, 6.0661945, 6.0661945, 6.0661945, 6.0661945, 6.0661945, 6.0661945, 6.0661945, 5.1874466, 4.620512, 4.0535784, 3.770111, 3.514991, 3.1748307, 2.8913634, 2.4378164, 2.0976558, 1.6724553, 1.0771747, 0.36850712, 0.0, -0.53858733, -0.76536095, -1.0204812, -1.2472548, -1.5590686, -1.7008021, -1.9559225, -2.0693092, -2.2393894, -2.4945097, -2.8063235, -3.0047503, -3.2315238, -3.6567245, -3.911845, -4.110272, -4.4504323, -4.6772056, -4.847286, -5.045713, -5.1591, -5.2724867, -5.3575263, -5.41422, -5.4425664, -5.4992604, -5.5843005, -5.612647, -5.6409936, -5.697687, -5.697687, -5.7260337, -5.7260337, -5.7260337, -5.7260337, -5.7260337, -5.697687, -5.612647, -5.4709134, -5.3575263, -5.2724867, -5.215793, -5.1874466, -5.1591, -5.130753, -5.1024065, -5.1024065, -5.0740595, -5.017366, -5.017366, -4.960673, -4.875633, -4.847286, -4.762246, -4.762246, -4.733899, -4.733899, -4.7055526, -4.6772056, -4.6772056, -4.6772056, -4.6772056, -4.6772056, -4.6772056, -4.648859, -4.648859, -4.648859, -4.620512, -4.620512, -4.620512, -4.620512, -4.620512, -4.620512, -4.620512, -4.620512, -4.620512, -4.620512, -4.620512, -4.620512, -4.620512, -4.620512, -4.620512, -4.620512, -4.620512, -4.620512, -4.620512, -4.620512, -4.620512, -4.620512, -4.620512, -4.620512, -4.620512, -4.620512, -4.620512, -4.620512, -4.620512, -4.620512, -4.620512, -4.620512, -4.620512, -4.620512, -4.620512, -4.620512, -4.620512, -4.620512, -4.620512, -4.620512, -4.620512, -4.620512, -4.620512, -4.620512, -4.620512, -4.620512, -4.620512, -4.620512, -4.620512, -4.620512, -4.620512, -4.620512, -4.620512, -4.620512, -4.620512, -4.620512, -4.620512, -4.620512, -4.563819, -4.3086987, -4.166965, -3.9401915, -3.8834982, -3.798458, -3.7417645, -3.713418, -3.713418, -3.6850712, -3.6850712, -3.6000311, -3.514991, -3.4582977, -3.3732576, -3.316564, -3.316564, -3.316564, -3.316564, -3.316564, -3.316564, -3.316564, -3.316564, -3.316564, -3.316564, -3.316564, -3.316564, -3.316564, -3.316564, -3.316564, -3.316564, -3.316564, -3.316564, -3.316564, -3.316564, -3.316564, -3.316564, -3.316564, -3.316564];[0.0041588000021874905, 0.029511300032027066, 0.0505372000625357, 0.06615229998715222, 0.08515050006099045, 0.10083890007808805, 0.11709020007401705, 0.1341909000184387, 0.15043720009271055, 0.1663652000715956, 0.18343360000289977, 0.1979138000169769, 0.21583640004973859, 0.23111779999453574, 0.2493609000230208, 0.2659292999887839, 0.28262340009678155, 0.2999292000895366, 0.31588360003661364, 0.33167510002385825, 0.3485831000143662, 0.36514990008436143, 0.38437820004764944, 0.3993431000271812, 0.417250300059095, 0.4322341000661254, 0.45087870000861585, 0.4656805000267923, 0.4836452000308782, 0.4992344999918714, 0.5156590000260621, 0.5326753000263125, 0.5494716000976041, 0.5655540000880137, 0.5841242000460625, 0.5991759999888018, 0.6174917999887839, 0.6325254000257701, 0.6500870999880135, 0.6654158000601456, 0.6830049999989569, 0.6992339000571519, 0.7152039000065997, 0.7316246000118554, 0.7496316999895498, 0.7649797000922263, 0.7824239000910893, 0.8003458000021055, 0.8152313000755385, 0.8313064000103623, 0.8497322000330314, 0.8652901999885216, 0.8862513999920338, 0.8993619000539184, 0.9171511000022292, 0.9326077000005171, 0.9508044000249356, 0.9673180000390857, 0.985059600090608, 0.997975500067696, 1.0151260000420734, 1.0302479000529274, 1.047308100038208, 1.0642933000344783, 1.080508999992162, 1.0965377000393346, 1.1135192000074312, 1.131711299996823, 1.1517736000241712, 1.1657893999945372, 1.1836879000766203, 1.202509600087069, 1.216488300007768, 1.232445300091058, 1.250500600086525, 1.265863300068304, 1.2833966000471264, 1.2989758000476286, 1.3170272000133991, 1.3324915000703186, 1.3495430999901146, 1.3662071999860927, 1.3835411000763997, 1.398743400000967, 1.419940400053747, 1.431923700030893, 1.4505380000919104, 1.4682329000206664, 1.4830073000630364, 1.500225800089538, 1.5166942999931052, 1.5323642001021653, 1.5523705000523478, 1.5640754000050947, 1.582714100019075, 1.59930370002985, 1.6147879000054672, 1.6327506999950856, 1.6495444000465795, 1.6637699001003057, 1.6810808000154793, 1.697426600032486, 1.7153608000371605, 1.7324781999923289, 1.7483823000220582, 1.7652901000110433, 1.7837611000286415, 1.7976346000796184, 1.8159883000189438, 1.8313994000200182, 1.8480718000791967, 1.86684580007568, 1.8818040000041947, 1.8974964000517502, 1.9149182999972254, 1.9307506000623107, 1.9507813000818714, 1.9641277000773698, 1.9822503000032157, 1.9980096000945196, 2.0153525000205263, 2.0318448999896646, 2.049348600092344, 2.0642334000440314, 2.0839753000764176, 2.098430100013502, 2.1177023000782356, 2.132552900002338, 2.150026799994521, 2.16631540004164, 2.183661099988967, 2.19863020000048, 2.2168182000750676, 2.232168000075035, 2.2510398000013083, 2.264879300026223, 2.2853022000053898, 2.2992946000304073, 2.31649970007129, 2.332185900071636, 2.3508826000615954, 2.366878200089559, 2.383364800014533, 2.399445699993521, 2.4163770000450313, 2.4320307000307366, 2.4495665000285953, 2.4658049000427127, 2.4835820000153035, 2.499035199987702, 2.515863500069827, 2.531569000100717, 2.548593800049275, 2.5654104000423104, 2.583502200082876, 2.5983084000181407, 2.616012000013143, 2.6318402000470087, 2.650464400066994, 2.6657836000667885, 2.6832819000119343, 2.699315700097941, 2.7158185000298545, 2.73182079999242, 2.750901299994439, 2.7657353000249714, 2.78318680007942, 2.7987609000410885, 2.8156850000377744, 2.8295629000058398, 2.850653300061822, 2.8654587999917567, 2.8833946000086144, 2.899466900038533, 2.916342100012116, 2.931256400072016, 2.94870519998949, 2.9659779000794515, 2.9834071000805125, 2.998674500035122, 3.0175901000620797, 3.032572300056927, 3.0498579000122845, 3.067954400088638, 3.0823804000392556, 3.0989931999938563, 3.1188212000997737, 3.131758700008504, 3.1498047000495717, 3.1668314000125974, 3.1839145000558347, 3.196949900011532, 3.2165689000394195, 3.2313534000422806, 3.2511256000725552, 3.265416400041431, 3.283694599987939, 3.299686000100337, 3.3167818000074476, 3.3332652000244707, 3.3494775000726804, 3.365881900070235, 3.3838300000643358, 3.3987692000810057, 3.417660200037062, 3.431556800031103, 3.450935500091873, 3.4658551000757143, 3.4839272000826895, 3.498049100046046, 3.51591900002677, 3.531210400047712, 3.549169100006111, 3.5654277000576258, 3.5837428000522777, 3.5989592000842094, 3.6157658000010997, 3.631742800003849, 3.6494248000672087, 3.66520120005589, 3.6834286000812426, 3.698407700052485]
S11;2;0;0;1;False;1000;True;;8;-168.2494787057385;drag;L;-7.3701425;-1.6441087;-167.42;7.55;1.9792089000111446;1.9793933999026194;1686065454.7954826;1686065454.8097184;1686065455.5636418;1686065456.0653453;1686065457.050514;1686065459.0300393;[0.0, -0.1700802, -0.28346702, -0.36850712, -0.42520052, -0.53858733, -0.6236274, -0.65197414, -0.6803208, -0.7086675, -0.73701423, -0.79370767, -0.85040104, -0.9070944, -1.1055214, -1.2189082, -1.417335, -1.5023751, -1.6157619, -1.6724553, -1.7291489, -1.7574955, -1.8141888, -1.8141888, -1.8425356, -1.8425356, -1.8708823, -1.8708823, -1.899229, -1.9559225, -2.1260026, -2.5512033, -3.514991, -4.563819, -5.0740595, -5.7260337, -6.094541, -6.434701, -6.774862, -7.0016356, -7.228409, -7.313449, -7.313449, -7.313449, -7.313449, -7.313449, -7.313449, -7.313449, -7.313449, -7.313449, -7.313449, -7.313449, -7.313449, -7.313449, -7.313449, -7.313449, -7.313449, -7.313449, -7.313449, -7.313449, -7.313449, -7.313449, -7.313449, -7.313449, -7.313449, -7.313449, -7.313449, -7.313449, -7.313449, -7.313449, -7.313449, -7.313449, -7.3701425, -7.3984895, -7.3984895, -7.426836, -7.426836, -7.4551826, -7.4551826, -7.483529, -7.483529, -7.483529, -7.483529, -7.483529, -7.483529, -7.483529, -7.4551826, -7.426836, -7.3984895, -7.3701425, -7.3701425, -7.3701425, -7.3701425, -7.3701425, -7.3701425, -7.3701425, -7.3701425, -7.3701425, -7.3701425, -7.3701425, -7.3701425, -7.3701425, -7.3701425, -7.3701425, -7.3701425, -7.3701425, -7.3701425, -7.3701425, -7.3701425, -7.3701425, -7.3701425, -7.3701425, -7.3701425, -7.3701425, -7.3701425, -7.3701425, -7.3701425, -7.3701425];[0.0, 0.14173351, 0.28346702, 0.36850712, 0.48189393, 0.6803208, 0.79370767, 0.87874776, 0.96378785, 1.0204812, 1.0771747, 1.1055214, 1.1622148, 1.2189082, 1.2756016, 1.3039483, 1.332295, 1.332295, 1.332295, 1.332295, 1.332295, 1.3039483, 1.3039483, 1.3039483, 1.3039483, 1.3039483, 1.2756016, 1.2756016, 1.2189082, 1.1622148, 1.0204812, 0.65197414, -0.1133868, -1.0204812, -1.3889884, -1.8141888, -2.012616, -2.182696, -2.3244295, -2.4094696, -2.5228565, -2.57955, -2.57955, -2.57955, -2.57955, -2.57955, -2.57955, -2.57955, -2.57955, -2.57955, -2.57955, -2.57955, -2.57955, -2.57955, -2.57955, -2.57955, -2.57955, -2.57955, -2.57955, -2.57955, -2.57955, -2.57955, -2.57955, -2.57955, -2.57955, -2.57955, -2.57955, -2.57955, -2.57955, -2.57955, -2.57955, -2.5512033, -2.381123, -2.2677362, -2.211043, -2.182696, -2.1543493, -2.0976558, -2.0976558, -2.0693092, -2.0693092, -2.0409625, -2.0409625, -2.012616, -1.984269, -1.9559225, -1.8141888, -1.7574955, -1.6724553, -1.6441087, -1.6157619, -1.6157619, -1.6157619, -1.6157619, -1.6441087, -1.6441087, -1.6441087, -1.6441087, -1.6441087, -1.6441087, -1.6441087, -1.6441087, -1.6441087, -1.6441087, -1.6441087, -1.6441087, -1.6441087, -1.6441087, -1.6441087, -1.6441087, -1.6441087, -1.6441087, -1.6441087, -1.6441087, -1.6441087, -1.6441087, -1.6441087, -1.6441087];[0.004245699965395033, 0.02968689997214824, 0.05027050001081079, 0.06431169994175434, 0.08220019994769245, 0.09901929995976388, 0.11470479995477945, 0.1311332999030128, 0.1478644999442622, 0.16375319997314364, 0.18162479996681213, 0.1961605999385938, 0.21477299998514354, 0.23027619998902082, 0.24753349996171892, 0.26350210001692176, 0.2809312999015674, 0.2978544000070542, 0.31626699992921203, 0.33151859999634326, 0.348542399937287, 0.3652488999068737, 0.38018729991745204, 0.3966059999074787, 0.4143690000055358, 0.42918330000247806, 0.44710369990207255, 0.4622186999768019, 0.4820767999626696, 0.4980208999477327, 0.5144440999720246, 0.5301135999616235, 0.5472286000149325, 0.5633775999303907, 0.581391999963671, 0.5973501999396831, 0.614903699955903, 0.6303625999717042, 0.6473549999063835, 0.6635841999668628, 0.6813182999612764, 0.6970391999930143, 0.7140414000023156, 0.7309078999096528, 0.7487543999450281, 0.7648669999325648, 0.781429999973625, 0.7980659999884665, 0.814637599978596, 0.8314560999860987, 0.8482238999567926, 0.8634099999908358, 0.880752099910751, 0.898174999980256, 0.9159168999176472, 0.9309312999248505, 0.9488366999430582, 0.9633706000167876, 0.9823269000044093, 0.9982610999140888, 1.0146188999060541, 1.0307296999963, 1.0479445999953896, 1.0636753999860957, 1.0798835000023246, 1.096308899926953, 1.1148255999432877, 1.1298798999050632, 1.148444699938409, 1.163845199975185, 1.1811861000023782, 1.1981529999757186, 1.2142241999972612, 1.230008199927397, 1.24987770000007, 1.2636105999117717, 1.281156999990344, 1.2986549999332055, 1.3136328000109643, 1.3334596999920905, 1.3465196999022737, 1.362781299976632, 1.3801787999691442, 1.3970451999921352, 1.4144562999717891, 1.4307691999711096, 1.4478316999739036, 1.4655984999844804, 1.4813354999059811, 1.4962809999706224, 1.5143573000095785, 1.5295826999936253, 1.5478102999040857, 1.5637101999018341, 1.5806643000105396, 1.596745299990289, 1.614893599995412, 1.6313806999241933, 1.6485030999174342, 1.663096999982372, 1.6818992999615148, 1.6992962999502197, 1.7163888999493793, 1.7332379999570549, 1.7484733999008313, 1.7638179999776185, 1.7825793999945745, 1.7966516999294981, 1.8154693999094889, 1.8309184999670833, 1.8482621000148356, 1.8639323000097647, 1.881881900015287, 1.8966374999145046, 1.9147930999752134, 1.930078399949707, 1.9479665999533609, 1.9645796999102458]
S11;3;0;0;1;False;3000;False;;8;132.1776323392369;drag;L;nan;nan;nan;nan;0.002412899979390204;0.0025130000431090593;1686065459.8309002;1686065459.8429928;1686065460.5964165;1686065461.0978794;1686065464.0809429;1686065464.0830019;[];[];[]
S11;3;0;0;1;False;3000;True;;8;-108.52484035729061;drag;L;-3.9401915;-4.478779;-131.34;5.97;8.463809299981222;8.463912200066261;1686065464.6477878;1686065464.6587932;1686065465.41347;1686065465.9141166;1686065468.9143693;1686065477.378201;[0.0, 0.0, 0.0, 0.0, 0.0, 0.0, 0.0, 0.0, 0.0, 0.0, 0.0, 0.0, 0.0, 0.0, 0.0, 0.0, 0.0, 0.0, 0.0, 0.0, 0.0, 0.0, 0.0, 0.0, 0.0, 0.0, 0.0, 0.0, 0.0, 0.0, 0.0, 0.0, 0.0, 0.0, 0.0, 0.0, 0.0, 0.0, 0.0, 0.0, 0.0, 0.0, 0.0, 0.0, 0.0, 0.0, 0.0, 0.0, 0.0, 0.0, 0.0, 0.0, 0.0, 0.0, 0.0, 0.0, 0.0, 0.0, 0.0, 0.0, 0.0, 0.0, 0.0, 0.0, 0.0, 0.0, 0.0, 0.0, 0.0, 0.0, 0.0, 0.0, 0.0, 0.0, 0.0, 0.0, 0.0, 0.0, 0.0, 0.0, 0.0, 0.0, 0.0, 0.0, 0.0, 0.0, 0.0, 0.0, 0.0, 0.0, 0.0, 0.0, 0.0, 0.0, 0.0, 0.0, 0.0, 0.0, 0.0, 0.0, 0.0, 0.0, 0.0, 0.0, 0.0, 0.0, 0.0, 0.0, 0.0, 0.0, 0.0, 0.0, 0.0, 0.0, 0.0, 0.0, 0.0, 0.0, 0.0, 0.0, 0.0, 0.0, 0.0, 0.0, 0.0, 0.0, 0.0, 0.0, 0.0, 0.0, 0.0, 0.0, 0.0, 0.0, 0.0, 0.0, 0.0, 0.0, 0.0, 0.0, 0.0, 0.0, 0.0, 0.0, 0.0, 0.0, 0.0, 0.0, 0.0, 0.0, 0.0, 0.0, 0.0, 0.0, 0.0, 0.0, 0.0, 0.0, 0.0, 0.0, 0.0, 0.0, 0.0, 0.0, 0.0, 0.0, 0.0, 0.0, 0.0, 0.0, 0.0, 0.0, 0.0, 0.0, 0.0, 0.0, 0.0, 0.0, 0.0, 0.0, 0.0, 0.0, 0.0, 0.0, 0.0, 0.0, 0.0, 0.0, 0.0, 0.0, 0.0, 0.0, 0.0, 0.0, 0.0, 0.0, 0.0, 0.0, 0.0, 0.0, 0.0, 0.0, 0.0, 0.0, 0.0, 0.0, 0.0, 0.0, 0.0, 0.0, 0.0, 0.0, 0.0, 0.0, 0.0, 0.0, 0.0, 0.0, 0.0, 0.0, 0.0, 0.0, 0.0, 0.0, 0.0, 0.0, 0.0, 0.0, 0.0, 0.0, 0.0, 0.0, 0.0, 0.0, 0.0, 0.0, 0.0, 0.0, 0.0, 0.0, 0.0, 0.0, 0.0, 0.0, 0.0, 0.0, 0.0, 0.0, 0.0, 0.0, 0.0, 0.0, 0.0, 0.0, 0.0, 0.0, 0.0, 0.0, 0.0, 0.0, 0.0, 0.0, 0.0, 0.0, 0.0, 0.0, 0.0, 0.0, 0.0, 0.0, 0.0, 0.0, 0.0, 0.0, 0.0, 0.0, 0.0, 0.0, 0.0, 0.0, 0.0, 0.0, 0.0, 0.0, 0.0, 0.0, 0.0, 0.0, 0.0, 0.0, 0.0, 0.0, 0.0, 0.0, 0.0, 0.0, 0.0, 0.0, 0.0, 0.0, 0.0, 0.0, 0.0, 0.0, 0.0, 0.0, 0.0, 0.0, 0.0, 0.0, 0.0, 0.0, 0.0, 0.0, 0.0, 0.0, 0.0, 0.0, 0.0, 0.0, 0.0, 0.0, 0.0, 0.0, 0.0, 0.0, 0.0, 0.0, 0.0, 0.0, 0.0, 0.0, 0.0, 0.0, 0.0, 0.0, 0.0, 0.0, 0.0, 0.0, 0.0, 0.0, 0.0, 0.0, 0.0, 0.0, 0.0, 0.0, 0.0, 0.0, 0.0, 0.0, 0.0, 0.0, 0.0, 0.0, 0.0, 0.0, 0.0, 0.0, 0.0, 0.0, 0.0, 0.0, 0.0, 0.0, 0.0, 0.0, 0.0, 0.0, 0.0, 0.0, 0.0, 0.0, 0.0, 0.0, 0.0, 0.0, 0.0, 0.0, 0.0, 0.0, 0.0, 0.0, 0.0, 0.0, 0.0, 0.0, 0.0, 0.0, 0.0, 0.0, 0.0, 0.0, 0.0, 0.0, 0.0, 0.0, 0.0, 0.0, 0.0, 0.0, 0.0, 0.0, 0.0, 0.0, 0.0, 0.0, 0.0, 0.0, 0.0, 0.0, 0.0, 0.0, 0.0, 0.0, 0.0, 0.0, 0.0, 0.0, 0.0, 0.0, 0.0, 0.0, 0.0, -0.36850712, -2.2677362, -3.0330973, -4.025232, -4.563819, -4.9039793, -5.300833, -5.41422, -5.527607, -5.66934, -5.7260337, -5.811074, -5.924461, -5.981154, -6.0661945, -6.1228876, -6.151234, -6.1795807, -6.1795807, -6.2079277, -6.1795807, -6.0661945, -5.7260337, -5.4425664, -5.215793, -4.9039793, -4.762246, -4.5921655, -4.478779, -4.337045, -4.1953115, -4.025232, -3.911845, -3.7417645, -3.6567245, -3.6000311, -3.5716846, -3.514991, -3.514991, -3.4866443, -3.4866443, -3.4866443, -3.4866443, -3.4866443, -3.514991, -3.514991, -3.514991, -3.514991, -3.5433376, -3.5433376, -3.5716846, -3.6000311, -3.6567245, -3.6850712, -3.7417645, -3.770111, -3.8268046, -3.8551514, -3.8551514, -3.8834982, -3.8834982, -3.911845, -3.911845, -3.9401915, -3.9401915, -3.9401915, -3.9401915, -3.9401915, -3.9401915, -3.9401915, -3.9401915, -3.9401915, -3.9401915, -3.9401915, -3.9401915, -3.9401915, -3.9401915, -3.9401915, -3.9401915, -3.9401915, -3.9401915, -3.9401915];[0.0, 0.0, 0.0, 0.0, 0.0, 0.0, 0.0, 0.0, 0.0, 0.0, 0.0, 0.0, 0.0, 0.0, 0.0, 0.0, 0.0, 0.0, 0.0, 0.0, 0.0, 0.0, 0.0, 0.0, 0.0, 0.0, 0.0, 0.0, 0.0, 0.0, 0.0, 0.0, 0.0, 0.0, 0.0, 0.0, 0.0, 0.0, 0.0, 0.0, 0.0, 0.0, 0.0, 0.0, 0.0, 0.0, 0.0, 0.0, 0.0, 0.0, 0.0, 0.0, 0.0, 0.0, 0.0, 0.0, 0.0, 0.0, 0.0, 0.0, 0.0, 0.0, 0.0, 0.0, 0.0, 0.0, 0.0, 0.0, 0.0, 0.0, 0.0, 0.0, 0.0, 0.0, 0.0, 0.0, 0.0, 0.0, 0.0, 0.0, 0.0, 0.0, 0.0, 0.0, 0.0, 0.0, 0.0, 0.0, 0.0, 0.0, 0.0, 0.0, 0.0, 0.0, 0.0, 0.0, 0.0, 0.0, 0.0, 0.0, 0.0, 0.0, 0.0, 0.0, 0.0, 0.0, 0.0, 0.0, 0.0, 0.0, 0.0, 0.0, 0.0, 0.0, 0.0, 0.0, 0.0, 0.0, 0.0, 0.0, 0.0, 0.0, 0.0, 0.0, 0.0, 0.0, 0.0, 0.0, 0.0, 0.0, 0.0, 0.0, 0.0, 0.0, 0.0, 0.0, 0.0, 0.0, 0.0, 0.0, 0.0, 0.0, 0.0, 0.0, 0.0, 0.0, 0.0, 0.0, 0.0, 0.0, 0.0, 0.0, 0.0, 0.0, 0.0, 0.0, 0.0, 0.0, 0.0, 0.0, 0.0, 0.0, 0.0, 0.0, 0.0, 0.0, 0.0, 0.0, 0.0, 0.0, 0.0, 0.0, 0.0, 0.0, 0.0, 0.0, 0.0, 0.0, 0.0, 0.0, 0.0, 0.0, 0.0, 0.0, 0.0, 0.0, 0.0, 0.0, 0.0, 0.0, 0.0, 0.0, 0.0, 0.0, 0.0, 0.0, 0.0, 0.0, 0.0, 0.0, 0.0, 0.0, 0.0, 0.0, 0.0, 0.0, 0.0, 0.0, 0.0, 0.0, 0.0, 0.0, 0.0, 0.0, 0.0, 0.0, 0.0, 0.0, 0.0, 0.0, 0.0, 0.0, 0.0, 0.0, 0.0, 0.0, 0.0, 0.0, 0.0, 0.0, 0.0, 0.0, 0.0, 0.0, 0.0, 0.0, 0.0, 0.0, 0.0, 0.0, 0.0, 0.0, 0.0, 0.0, 0.0, 0.0, 0.0, 0.0, 0.0, 0.0, 0.0, 0.0, 0.0, 0.0, 0.0, 0.0, 0.0, 0.0, 0.0, 0.0, 0.0, 0.0, 0.0, 0.0, 0.0, 0.0, 0.0, 0.0, 0.0, 0.0, 0.0, 0.0, 0.0, 0.0, 0.0, 0.0, 0.0, 0.0, 0.0, 0.0, 0.0, 0.0, 0.0, 0.0, 0.0, 0.0, 0.0, 0.0, 0.0, 0.0, 0.0, 0.0, 0.0, 0.0, 0.0, 0.0, 0.0, 0.0, 0.0, 0.0, 0.0, 0.0, 0.0, 0.0, 0.0, 0.0, 0.0, 0.0, 0.0, 0.0, 0.0, 0.0, 0.0, 0.0, 0.0, 0.0, 0.0, 0.0, 0.0, 0.0, 0.0, 0.0, 0.0, 0.0, 0.0, 0.0, 0.0, 0.0, 0.0, 0.0, 0.0, 0.0, 0.0, 0.0, 0.0, 0.0, 0.0, 0.0, 0.0, 0.0, 0.0, 0.0, 0.0, 0.0, 0.0, 0.0, 0.0, 0.0, 0.0, 0.0, 0.0, 0.0, 0.0, 0.0, 0.0, 0.0, 0.0, 0.0, 0.0, 0.0, 0.0, 0.0, 0.0, 0.0, 0.0, 0.0, 0.0, 0.0, 0.0, 0.0, 0.0, 0.0, 0.0, 0.0, 0.0, 0.0, 0.0, 0.0, 0.0, 0.0, 0.0, 0.0, 0.0, 0.0, 0.0, 0.0, 0.0, 0.0, 0.0, 0.0, 0.0, 0.0, 0.0, 0.0, 0.0, 0.0, 0.0, 0.0, 0.0, 0.0, 0.0, 0.0, 0.0, 0.0, 0.0, 0.0, 0.0, 0.0, 0.0, 0.0, 0.0, 0.0, 0.0, 0.0, 0.0, 0.0, 0.0, 0.0, 0.0, 0.0, 0.0, 0.0, 0.0, 0.0, 0.0, -0.2267736, -1.6157619, -2.3244295, -3.2882173, -3.7417645, -4.081925, -4.3937387, -4.5071254, -4.620512, -4.733899, -4.818939, -4.932326, -5.1024065, -5.215793, -5.3575263, -5.4425664, -5.4709134, -5.4992604, -5.527607, -5.527607, -5.4992604, -5.32918, -4.9890194, -4.733899, -4.563819, -4.422086, -4.365392, -4.365392, -4.365392, -4.365392, -4.3937387, -4.3937387, -4.3937387, -4.337045, -4.252005, -4.166965, -4.110272, -4.081925, -4.081925, -4.0535784, -4.0535784, -4.0535784, -4.0535784, -4.0535784, -4.081925, -4.081925, -4.110272, -4.110272, -4.1386185, -4.1386185, -4.166965, -4.2236586, -4.2803516, -4.3086987, -4.365392, -4.422086, -4.422086, -4.4504323, -4.4504323, -4.4504323, -4.4504323, -4.4504323, -4.4504323, -4.478779, -4.478779, -4.478779, -4.478779, -4.478779, -4.478779, -4.478779, -4.478779, -4.478779, -4.478779, -4.478779, -4.478779, -4.478779, -4.478779, -4.478779, -4.478779, -4.478779, -4.478779, -4.478779];[0.005665100063197315, 0.03159260004758835, 0.051320399972610176, 0.06753260002005845, 0.08438250003382564, 0.10012219997588545, 0.11777640006039292, 0.13142079999670386, 0.1503058000234887, 0.16512280004099011, 0.1836353000253439, 0.19908090005628765, 0.21709050005301833, 0.23345180007163435, 0.25115959998220205, 0.26667479996103793, 0.2849829000188038, 0.2995157999685034, 0.3173117999685928, 0.3341423000674695, 0.3518055999884382, 0.3657690000254661, 0.3843728000065312, 0.4002641000552103, 0.4168219000566751, 0.4338400000706315, 0.4514205000596121, 0.4666565000079572, 0.4849736000178382, 0.5005331999855116, 0.5166137999622151, 0.5335995999630541, 0.5512086000526324, 0.5673268999671564, 0.5848723000381142, 0.5997892000013962, 0.6175377999898046, 0.6323013000655919, 0.6502834999701008, 0.6650709999958053, 0.6834563000593334, 0.7005852999864146, 0.7176315999822691, 0.73305350006558, 0.7504485000390559, 0.7652191000524908, 0.7839804000686854, 0.7990106999641284, 0.8161280000349507, 0.832373799989, 0.8510648000519723, 0.8660642000613734, 0.8835588999791071, 0.9004413000075147, 0.9169596000574529, 0.9329083999618888, 0.950294499984011, 0.966374000068754, 0.9848582000704482, 1.0006121000042185, 1.0169084999943152, 1.031061099958606, 1.049587000044994, 1.067211200017482, 1.0817922999849543, 1.0992201999761164, 1.1169895000057295, 1.1318300999701023, 1.1504532999824733, 1.1658940999768674, 1.184205500059761, 1.2005902000237256, 1.2187787999864668, 1.2344873000402004, 1.2498964000260457, 1.267364399973303, 1.2841781000606716, 1.299786000046879, 1.316846700035967, 1.333105199970305, 1.3522743000648916, 1.3668647999875247, 1.3840971000026911, 1.4006281000329182, 1.4185960000613704, 1.4330196999944746, 1.4513121000491083, 1.4661995000205934, 1.4844270000467077, 1.4992198999971151, 1.5171741000376642, 1.5337559999898076, 1.5524892000248656, 1.5660341000184417, 1.584148499998264, 1.6003162000561133, 1.618169500026852, 1.6338354999898002, 1.651666700025089, 1.6662397000472993, 1.6837508999742568, 1.6989261000417173, 1.7170773000689223, 1.7323193000629544, 1.7516572000458837, 1.7666364000178874, 1.7841509999707341, 1.7994491000426933, 1.8167596000712365, 1.832847399986349, 1.849671500036493, 1.865898499963805, 1.8849998000077903, 1.8994142999872565, 1.9187886000145227, 1.9340072000632063, 1.9512921000132337, 1.9661870000418276, 1.9833592000650242, 1.999896900029853, 2.0176053000614047, 2.0339722000062466, 2.0521747999591753, 2.0664590999949723, 2.0842579000163823, 2.099893599981442, 2.118043399997987, 2.133492200053297, 2.150315699982457, 2.165163500001654, 2.183786300010979, 2.2007203999673948, 2.217736499966122, 2.2332387999631464, 2.25106549996417, 2.26599330001045, 2.2852082999888808, 2.2999571000691503, 2.3185797999612987, 2.3327650000574067, 2.352019299985841, 2.367043500067666, 2.384118500049226, 2.3996094999602064, 2.4172339000506327, 2.432333800010383, 2.4503423999994993, 2.4657205999828875, 2.48274810006842, 2.498646500054747, 2.515862200059928, 2.5338058000197634, 2.550237199990079, 2.5660017000045627, 2.583673399989493, 2.600526600028388, 2.6179691000143066, 2.6337003000080585, 2.6513535999692976, 2.6661836999701336, 2.6833688999759033, 2.700670800055377, 2.718006700044498, 2.7339022000087425, 2.7510823999764398, 2.7680859999964014, 2.784510900033638, 2.8007154000224546, 2.817868300015107, 2.833013799972832, 2.8506660000421107, 2.866260700044222, 2.8836855000117794, 2.900517200003378, 2.9172601000173017, 2.932775199995376, 2.9516288000158966, 2.966614800039679, 2.983346199966036, 3.0006025000475347, 3.0187188000418246, 3.0332626999588683, 3.0517574000405148, 3.0659489000681788, 3.0831242999993265, 3.0998393000336364, 3.1179618999594823, 3.1338109000353143, 3.1519500999711454, 3.1668828000547364, 3.184201500029303, 3.2008339000167325, 3.2187787999864668, 3.233127500046976, 3.2515677000628784, 3.2660560000222176, 3.2839375999756157, 3.3002786999568343, 3.3174872000236064, 3.3319779000012204, 3.3501530999783427, 3.365943899960257, 3.3834469000576064, 3.39780629996676, 3.4165606000460684, 3.4321160999825224, 3.450918299960904, 3.465543600032106, 3.4835017999866977, 3.49948730005417, 3.518721800064668, 3.5336394000332803, 3.5517236000159755, 3.5670597000280395, 3.5821168000111356, 3.598504599998705, 3.618489900021814, 3.6339350000489503, 3.6512538000242785, 3.6674086999846622, 3.6852797999745235, 3.698822900070809, 3.7168953999644145, 3.7336741000181064, 3.7500987000530586, 3.7655873000621796, 3.783438800019212, 3.8000490000704303, 3.8156277000671253, 3.8334104999667034, 3.850805400055833, 3.8674744999734685, 3.883787399972789, 3.9002197000663728, 3.918093999964185, 3.9332769999746233, 3.9515402000397444, 3.967855600058101, 3.983638699981384, 4.000100600067526, 4.0162634999724105, 4.032695200061426, 4.048870000056922, 4.066398399998434, 4.084894599975087, 4.099375099991448, 4.11807059997227, 4.133833299973048, 4.150900200009346, 4.166747699957341, 4.18423580005765, 4.20046059996821, 4.2176093000452965, 4.233342600055039, 4.250054100062698, 4.265608199988492, 4.284690900007263, 4.3010127999586985, 4.318253800040111, 4.333149299956858, 4.3517272999743, 4.364798399969004, 4.3833226000424474, 4.399680700036697, 4.416767399990931, 4.433333400054835, 4.452365200035274, 4.467351000057533, 4.485271000070497, 4.500423299963586, 4.5178009000374, 4.533299000002444, 4.550943600013852, 4.566010000067763, 4.583318799966946, 4.60038610000629, 4.6182499000569806, 4.633110100054182, 4.651212400058284, 4.666016999981366, 4.683359500020742, 4.700983899994753, 4.717534300056286, 4.732181500061415, 4.7494625999825075, 4.765541200060397, 4.7834661999950185, 4.799431000021286, 4.818637300049886, 4.833600900019519, 4.850480500026606, 4.8666848000139, 4.883950600051321, 4.900479300064035, 4.918089700047858, 4.93206270004157, 4.9501347000477836, 4.964959500008263, 4.98300620005466, 5.0000998000614345, 5.0171905000461265, 5.032481000060216, 5.051915999967605, 5.066798500018194, 5.082952999975532, 5.100769400014542, 5.117190000019036, 5.132616100017913, 5.151171399978921, 5.166662500007078, 5.184310200042091, 5.20022150001023, 5.216751000029035, 5.232711800024845, 5.2502454000059515, 5.267064900021069, 5.28409890003968, 5.300205799983814, 5.318101100041531, 5.333938600029796, 5.351070799981244, 5.366483199992217, 5.3841752000153065, 5.400092500029132, 5.4162999000400305, 5.432408699998632, 5.449940399965271, 5.4661588000599295, 5.483416100032628, 5.50014610006474, 5.517085200059228, 5.5328801000723615, 5.55005419999361, 5.566713400068693, 5.58505029999651, 5.599328299984336, 5.615733599988744, 5.6324942000210285, 5.649875000002794, 5.665430200053379, 5.683201399981044, 5.6991500000003725, 5.716893600067124, 5.733738300041296, 5.749698200030252, 5.766982499975711, 5.782976499991491, 5.799961099983193, 5.817169800051488, 5.832591200014576, 5.851864799973555, 5.865418900037184, 5.884066800004803, 5.899156300001778, 5.916904799989425, 5.933575200033374, 5.949576499988325, 5.9664671999635175, 5.9825405000010505, 5.99960340000689, 6.016366600058973, 6.032692600041628, 6.04966240003705, 6.064890700043179, 6.082320100045763, 6.0990039999596775, 6.116580400033854, 6.132778599974699, 6.150076400022954, 6.1659414999885485, 6.183672299957834, 6.198452100041322, 6.216982000041753, 6.23203780001495, 6.251973000005819, 6.2653279000660405, 6.2836066000163555, 6.299284899956547, 6.316131900064647, 6.333182999980636, 6.350051100016572, 6.3661015999969095, 6.383605099981651, 6.399340900010429, 6.417379299993627, 6.432623600005172, 6.451269599958323, 6.465580899966881, 6.4826417999574915, 6.500356100033969, 6.516997099970467, 6.531580200069584, 6.548551199957728, 6.56593449995853, 6.583022000035271, 6.598928999970667, 6.616351500037126, 6.632756800041534, 6.650127400062047, 6.666124399984255, 6.682144399965182, 6.698972300044261, 6.716931300004944, 6.733319099992514, 6.7511263999622315, 6.765349499997683, 6.783354799961671, 6.798714200034738, 6.815153900068253, 6.832785899983719, 6.849881300004199, 6.865276700002141, 6.883171400055289, 6.898819900001399, 6.916437600040808, 6.931820000056177, 6.951143600046635, 6.966688100015745, 6.982469500042498, 6.998439899994992, 7.017354300012812, 7.032520600012504, 7.048467800021172, 7.065897200023755, 7.083167099975981, 7.100905300001614, 7.117187299998477, 7.132968100020662, 7.151813099975698, 7.166094599990174, 7.183601700002328, 7.200656600063667, 7.216584000037983, 7.233691700035706, 7.250104299979284, 7.265913299983367, 7.283478999976069, 7.3002570000244305, 7.318105799960904, 7.334546400001273, 7.350816500023939, 7.365209000068717, 7.383502500015311, 7.400546999997459, 7.416867700056173, 7.433132900041528, 7.4503974000690505, 7.467297099996358, 7.483106400002725, 7.4991325000301, 7.516982099972665, 7.530530199990608, 7.550917000044137, 7.564943099976517, 7.583192200050689, 7.600723700015806, 7.6174127999693155, 7.6322296999860555, 7.649985100026242, 7.665336700039916, 7.684957299963571, 7.698951900005341, 7.716926399967633, 7.7326739999698475, 7.749686400056817, 7.765613800031133, 7.783623000024818, 7.800250299973413, 7.817752900067717, 7.832600499968976, 7.849731500027701, 7.8657913999632, 7.883277600049041, 7.899172100005671, 7.9157100999727845, 7.9331149000208825, 7.95198730006814, 7.964980100048706, 7.98241020005662, 7.999406500020996, 8.017170800012536, 8.032996000023559, 8.050946800038218, 8.066172100021504, 8.086140400031582, 8.098627600003965, 8.115889800013974, 8.13352140004281, 8.150009199976921, 8.166302200057544, 8.183808300062083, 8.199594600009732, 8.215663100010715, 8.231887600035407, 8.249656800064258, 8.265308300033212, 8.283221299992874, 8.29898389999289, 8.315770599991083, 8.331945099984296, 8.351607599994168, 8.36484539997764, 8.383079400053248, 8.398266799980775, 8.415304600028321, 8.431624099961482, 8.450788000016473]
S11;4;0;0;1;False;3000;True;;8;149.9225897427048;drag;L;-6.321315;3.2031772;153.13;7.09;1.3297499000327662;1.329920299933292;1686065478.2050457;1686065478.224572;1686065478.9793015;1686065479.4812717;1686065482.481998;1686065483.8118129;[0.0, 0.0, 0.2267736, 0.39685383, 0.56693405, 0.76536095, 0.85040104, 0.85040104, 0.79370767, 0.76536095, 0.65197414, 0.56693405, 0.42520052, 0.0283467, -0.36850712, -0.79370767, -1.6441087, -2.1543493, -2.8630168, -3.3449106, -3.798458, -4.2236586, -4.4504323, -4.648859, -5.017366, -5.215793, -5.4992604, -5.6409936, -5.75438, -5.811074, -5.8677673, -5.924461, -6.0095005, -6.0661945, -6.2362742, -6.3496614, -6.434701, -6.5197415, -6.6047816, -6.6614747, -6.7465153, -6.831555, -6.8599014, -6.9165955, -6.9165955, -6.944942, -6.944942, -6.944942, -6.944942, -6.944942, -6.888248, -6.831555, -6.7181687, -6.633128, -6.548088, -6.5197415, -6.434701, -6.434701, -6.378008, -6.378008, -6.3496614, -6.3496614, -6.3496614, -6.321315, -6.321315, -6.321315, -6.321315, -6.321315, -6.321315, -6.321315, -6.321315, -6.321315, -6.321315, -6.321315, -6.321315, -6.321315, -6.321315, -6.321315, -6.321315];[0.0, 3.4299507, 5.981154, 7.5118756, 8.900865, 9.921346, 10.856787, 11.168601, 11.310334, 11.33868, 11.367027, 11.367027, 11.367027, 11.225294, 11.026867, 10.771747, 10.148119, 9.779612, 9.127638, 8.645744, 8.107157, 7.596916, 7.313449, 7.086675, 6.6614747, 6.378008, 6.0661945, 5.896114, 5.811074, 5.7260337, 5.66934, 5.612647, 5.527607, 5.41422, 5.1024065, 4.7905927, 4.5354724, 4.365392, 4.2236586, 4.110272, 3.9401915, 3.8551514, 3.770111, 3.6850712, 3.6283777, 3.6000311, 3.5433376, 3.514991, 3.4299507, 3.3732576, 3.2882173, 3.2598708, 3.2031772, 3.2031772, 3.2031772, 3.2031772, 3.2031772, 3.2031772, 3.2031772, 3.2031772, 3.2031772, 3.2031772, 3.2031772, 3.2031772, 3.2031772, 3.2031772, 3.2031772, 3.2031772, 3.2031772, 3.2031772, 3.2031772, 3.2031772, 3.2031772, 3.2031772, 3.2031772, 3.2031772, 3.2031772, 3.2031772, 3.2031772];[0.003567699925042689, 0.02979489997960627, 0.051138099981471896, 0.0631736998911947, 0.0825427999952808, 0.09803169989027083, 0.11463899991940707, 0.13356129999738187, 0.14829829998780042, 0.16514429997187108, 0.18453429988585413, 0.19742269988637418, 0.21607629989739507, 0.23352759995032102, 0.24797489994671196, 0.26493009994737804, 0.2829520999221131, 0.29984739993233234, 0.31627149996347725, 0.3331015999428928, 0.3491087999427691, 0.3657271999400109, 0.3834302999312058, 0.39785619999747723, 0.41523669997695833, 0.43168639997020364, 0.45060979994013906, 0.46459129999857396, 0.48201769997831434, 0.49735119997058064, 0.5155595999676734, 0.5321624999633059, 0.5487724998965859, 0.5650642999680713, 0.5847045999253169, 0.5985125999432057, 0.615531999967061, 0.6326482999138534, 0.6502655999502167, 0.6642615998862311, 0.6821483999956399, 0.6988525999477133, 0.7149060999508947, 0.7316157999448478, 0.748583999928087, 0.7669851999962702, 0.7829136999789625, 0.7990567999659106, 0.8160115999635309, 0.8315503998892382, 0.8503842999925837, 0.8649484999477863, 0.8827797999838367, 0.8979243999347091, 0.9167274999199435, 0.9316865999717265, 0.9481499999528751, 0.9645258999662474, 0.984620799892582, 0.9979659999953583, 1.0156416998943314, 1.0313394999830052, 1.0486505998997018, 1.0658375999191776, 1.0819718999555334, 1.098632299923338, 1.115740199922584, 1.1317027999320999, 1.148323299945332, 1.1641840999945998, 1.1821408999385312, 1.197524799965322, 1.21427939995192, 1.2314481999492273, 1.249902099953033, 1.265286499983631, 1.2813345999456942, 1.2981815999373794, 1.314489199896343]
S11;5;0;0;1;False;1000;True;;8;127.87078375729027;drag;L;-4.7055526;5.1024065;132.68;6.94;2.3194752000272274;2.3195213000290096;1686065484.6373987;1686065484.6581635;1686065485.4143822;1686065485.914579;1686065486.8924956;1686065489.2116725;[0.0, 0.0, 0.0, 0.0, 0.0, 0.0, 0.0, 0.0, 0.0, 0.0, 0.0, 0.0, 0.0, 0.0, 0.0, 0.0, 0.0, 0.0, 0.0, 0.0, 0.0, 0.0, 0.0, 0.0, 0.0, 0.0, 0.0, 0.0, 0.0, 0.0, 0.0, 0.0, 0.0, 0.0, 0.0, 0.0, 0.0, 0.0, 0.0, 0.0, 0.0, 0.0, 0.0, 0.0, 0.0, 0.0, 0.0, 0.0, 0.0, 0.0, 0.0, 0.0, -0.1133868, -0.6803208, -1.3606416, -2.182696, -2.7212832, -3.3449106, -3.6283777, -3.8268046, -4.025232, -4.110272, -4.2236586, -4.365392, -4.4504323, -4.563819, -4.620512, -4.6772056, -4.733899, -4.733899, -4.762246, -4.818939, -4.875633, -4.9890194, -5.045713, -5.1024065, -5.130753, -5.1591, -5.1591, -5.045713, -4.932326, -4.818939, -4.762246, -4.7055526, -4.6772056, -4.6772056, -4.648859, -4.648859, -4.648859, -4.648859, -4.648859, -4.648859, -4.6772056, -4.7055526, -4.7055526, -4.7055526, -4.7055526, -4.7055526, -4.7055526, -4.7055526, -4.7055526, -4.7055526, -4.7055526, -4.7055526, -4.7055526, -4.7055526, -4.7055526, -4.7055526, -4.7055526, -4.7055526, -4.7055526, -4.7055526, -4.7055526, -4.7055526, -4.7055526, -4.7055526, -4.7055526, -4.7055526, -4.7055526, -4.7055526, -4.7055526, -4.7055526, -4.7055526, -4.7055526, -4.7055526, -4.7055526, -4.7055526, -4.7055526, -4.7055526, -4.7055526, -4.7055526, -4.7055526, -4.7055526, -4.7055526, -4.7055526, -4.7055526, -4.7055526, -4.7055526, -4.7055526];[0.0, 0.0, 0.0, 0.0, 0.0, 0.0, 0.0, 0.0, 0.0, 0.0, 0.0, 0.0, 0.0, 0.0, 0.0, 0.0, 0.0, 0.0, 0.0, 0.0, 0.0, 0.0, 0.0, 0.0, 0.0, 0.0, 0.0, 0.0, 0.0, 0.0, 0.0, 0.0, 0.0, 0.0, 0.0, 0.0, 0.0, 0.0, 0.0, 0.0, 0.0, 0.0, 0.0, 0.0, 0.0, 0.0, 0.0, 0.0, 0.0, 0.0, 0.0, 0.0, 0.1700802, 1.1338681, 2.4378164, 4.3937387, 5.4425664, 6.548088, 7.0016356, 7.228409, 7.483529, 7.6252627, 7.795343, 7.99377, 8.16385, 8.33393, 8.418971, 8.475664, 8.560703, 8.560703, 8.560703, 8.560703, 8.532357, 8.33393, 8.192197, 7.9654226, 7.5685697, 7.285102, 7.029982, 6.6047816, 6.321315, 6.0095005, 5.896114, 5.8394203, 5.75438, 5.7260337, 5.697687, 5.612647, 5.5843005, 5.4709134, 5.41422, 5.32918, 5.2724867, 5.2441397, 5.215793, 5.1591, 5.130753, 5.1024065, 5.1024065, 5.1024065, 5.1024065, 5.1024065, 5.1024065, 5.1024065, 5.1024065, 5.1024065, 5.1024065, 5.1024065, 5.1024065, 5.1024065, 5.1024065, 5.1024065, 5.1024065, 5.1024065, 5.1024065, 5.1024065, 5.1024065, 5.1024065, 5.1024065, 5.1024065, 5.1024065, 5.1024065, 5.1024065, 5.1024065, 5.1024065, 5.1024065, 5.1024065, 5.1024065, 5.1024065, 5.1024065, 5.1024065, 5.1024065, 5.1024065, 5.1024065, 5.1024065, 5.1024065, 5.1024065, 5.1024065, 5.1024065];[0.003650299971923232, 0.018329399987123907, 0.03475819993764162, 0.0522239999845624, 0.06838269997388124, 0.08534390002023429, 0.10190799995325506, 0.11941589997150004, 0.13457009999547154, 0.15189199999440461, 0.16779149998910725, 0.1850849000038579, 0.2017049000132829, 0.2185625999700278, 0.23501990002114326, 0.2520868999417871, 0.2684933999553323, 0.2864731999579817, 0.30237639998085797, 0.31879719998687506, 0.33534629992209375, 0.3529227999970317, 0.3687829999253154, 0.38536429998930544, 0.4024383999640122, 0.419095000019297, 0.43449349992442876, 0.4525144000072032, 0.46850329998414963, 0.4853632999584079, 0.5015780000248924, 0.5187113999854773, 0.5347487999824807, 0.5527144999941811, 0.56798529997468, 0.5852280999533832, 0.6012724000029266, 0.6188821999821812, 0.6348534999415278, 0.6518743999768049, 0.6689573000185192, 0.6858713999390602, 0.7019479000009596, 0.7191575999604538, 0.7347096999874339, 0.7524286999832839, 0.7682149999309331, 0.7851586999604478, 0.8014607999939471, 0.8190636999206617, 0.8352012999821454, 0.8516130999196321, 0.8681210000067949, 0.8852774000260979, 0.9022471000207588, 0.9185365999583155, 0.9353920000139624, 0.9517824000213295, 0.9684191999258474, 0.9865908999927342, 1.0019963999511674, 1.0195604999316856, 1.034597699996084, 1.0516020000213757, 1.0686354999197647, 1.0857106000185013, 1.10164230002556, 1.1188227999955416, 1.1351380000123754, 1.1521402000216767, 1.168043899931945, 1.1857456000288948, 1.2019027000060305, 1.2193925000028685, 1.2355703000212088, 1.251795299933292, 1.2686387000139803, 1.285784799954854, 1.301376499934122, 1.3190571999875829, 1.335250600008294, 1.3523754000198096, 1.3682409999892116, 1.3850305000087246, 1.4022881999844685, 1.4187108000041917, 1.4344268999993801, 1.4530687999213114, 1.4687045000027865, 1.4862546999938786, 1.5022702999413013, 1.5192550999345258, 1.536762599949725, 1.5531128000002354, 1.5678317999700084, 1.5855209999717772, 1.6035669000120834, 1.6211841999320313, 1.6363363999407738, 1.6548668999457732, 1.6711600000271574, 1.689109000028111, 1.70379179995507, 1.7206370999338105, 1.7376054999185726, 1.754582199966535, 1.7705033000092953, 1.7890641000121832, 1.8029577999841422, 1.8222842999966815, 1.8381563000148162, 1.8559745999518782, 1.8700986999319866, 1.888866199995391, 1.904521599994041, 1.921563099953346, 1.9369780999841169, 1.9537001999560744, 1.970073299948126, 1.9875439999159425, 2.0037525999359787, 2.022261400008574, 2.0381997999502346, 2.055339499958791, 2.071528199943714, 2.0882996999425814, 2.1045531999552622, 2.122383899986744, 2.139334199950099, 2.154447100008838, 2.1724085999885574, 2.1881827999604866, 2.206146499956958, 2.2227257000049576, 2.2366867000237107, 2.2548627000069246, 2.2707762999925762, 2.287980500026606, 2.3042280999943614]
S11;6;0;0;1;False;3000;True;;8;176.02879258303415;drag;L;-7.228409;-0.3401604;-177.31;7.24;1.980409900075756;1.980488899978809;1686065490.0185683;1686065490.0243754;1686065490.7795165;1686065491.2806451;1686065494.2791805;1686065496.2594967;[0.0, 0.0, 0.0, 0.0, 0.0, 0.0, 0.0, 0.0, 0.0, 0.0, 0.0, 0.0, 0.0, 0.0, 0.0, 0.0, 0.0, 0.0, 0.0, 0.0, 0.0, 0.0, 0.0, 0.0, 0.0, 0.0, 0.0, 0.0, 0.0, 0.0, 0.0, 0.0, 0.0, 0.0, 0.0, 0.0, 0.0, 0.0, 0.0, 0.0, 0.0, 0.0, -0.28346702, -1.0771747, -2.3527763, -3.0047503, -3.770111, -4.762246, -5.300833, -5.8394203, -6.0095005, -6.151234, -6.378008, -6.491395, -6.6047816, -6.6898212, -6.7181687, -6.8032084, -6.8599014, -6.9165955, -7.0583286, -7.2000623, -7.341796, -7.5685697, -7.7386494, -7.9087296, -8.135503, -8.277237, -8.362277, -8.475664, -8.50401, -8.50401, -8.50401, -8.50401, -8.447317, -8.362277, -8.277237, -8.220544, -8.16385, -8.07881, -8.050464, -8.022117, -7.99377, -7.9654226, -7.9654226, -7.937076, -7.9087296, -7.880383, -7.82369, -7.7669964, -7.6252627, -7.5685697, -7.483529, -7.3984895, -7.3701425, -7.313449, -7.313449, -7.285102, -7.2567554, -7.2567554, -7.2567554, -7.2567554, -7.2567554, -7.2567554, -7.228409, -7.228409, -7.228409, -7.228409, -7.228409, -7.228409, -7.228409, -7.228409, -7.228409, -7.228409, -7.228409, -7.228409, -7.228409, -7.228409, -7.228409];[0.0, 0.0, 0.0, 0.0, 0.0, 0.0, 0.0, 0.0, 0.0, 0.0, 0.0, 0.0, 0.0, 0.0, 0.0, 0.0, 0.0, 0.0, 0.0, 0.0, 0.0, 0.0, 0.0, 0.0, 0.0, 0.0, 0.0, 0.0, 0.0, 0.0, 0.0, 0.0, 0.0, 0.0, 0.0, 0.0, 0.0, 0.0, 0.0, 0.0, 0.0, 0.0, 0.0283467, 0.14173351, 0.36850712, 0.56693405, 0.7086675, 0.85040104, 0.9070944, 0.96378785, 0.9921345, 1.0204812, 1.0771747, 1.1055214, 1.1338681, 1.1338681, 1.1338681, 1.1338681, 1.1338681, 1.1055214, 1.0771747, 0.9921345, 0.87874776, 0.6803208, 0.53858733, 0.36850712, 0.14173351, -0.0283467, -0.1700802, -0.3118137, -0.36850712, -0.42520052, -0.4535472, -0.48189393, -0.53858733, -0.53858733, -0.59528077, -0.59528077, -0.59528077, -0.6236274, -0.6236274, -0.6236274, -0.6236274, -0.6236274, -0.6236274, -0.6236274, -0.6236274, -0.6236274, -0.6236274, -0.6236274, -0.6236274, -0.6236274, -0.59528077, -0.56693405, -0.53858733, -0.4535472, -0.4535472, -0.39685383, -0.39685383, -0.36850712, -0.36850712, -0.3401604, -0.3401604, -0.3401604, -0.3401604, -0.3401604, -0.3401604, -0.3401604, -0.3401604, -0.3401604, -0.3401604, -0.3401604, -0.3401604, -0.3401604, -0.3401604, -0.3401604, -0.3401604, -0.3401604, -0.3401604];[0.00417069997638464, 0.016097199986688793, 0.03647109994199127, 0.05136549996677786, 0.06826710002496839, 0.08565869997255504, 0.10179019998759031, 0.11881699995137751, 0.1347456999355927, 0.15238969994243234, 0.16963130002841353, 0.18454779998864979, 0.20038409996777773, 0.21874659997411072, 0.23650809994433075, 0.2505708000389859, 0.2682113000191748, 0.28485779999755323, 0.30215480003971606, 0.3190704999724403, 0.3362368999514729, 0.35075440001673996, 0.36764880002010614, 0.3847933999495581, 0.4007965000346303, 0.4183490000432357, 0.4357788999332115, 0.45188940002117306, 0.4702462999848649, 0.4847373999655247, 0.5024775000056252, 0.518597099930048, 0.5366955000208691, 0.5523596999701113, 0.5685844999970868, 0.5846245000138879, 0.6008039000444114, 0.617071499931626, 0.6338655999861658, 0.6505345000186935, 0.6673729999456555, 0.6828886000439525, 0.6996897000353783, 0.717454900033772, 0.7353855000110343, 0.7483931999886408, 0.7676910000154749, 0.7834614999592304, 0.8005992999533191, 0.8178376000141725, 0.832765799947083, 0.8507481999695301, 0.8663379999343306, 0.882863900042139, 0.9021200999850407, 0.9163207999663427, 0.934073599986732, 0.9515680000185966, 0.9660525999497622, 0.9821860999800265, 1.0013103999663144, 1.0154594000196084, 1.034157200017944, 1.0497482999926433, 1.067210300010629, 1.0827339999377728, 1.0994194999802858, 1.1162332999520004, 1.133326799958013, 1.1483412999659777, 1.167079900042154, 1.1826784999575466, 1.201102799968794, 1.2165020999964327, 1.2328088999493048, 1.2497586000245064, 1.2683129999786615, 1.283951299963519, 1.3009763000300154, 1.3171392999356613, 1.334202399943024, 1.3503053999738768, 1.3678142999997362, 1.384331800043583, 1.4011232999619097, 1.4178487999597564, 1.4367877999320626, 1.4517141999676824, 1.467397699947469, 1.4844642999814823, 1.5008645999478176, 1.5177059000125155, 1.5349184999940917, 1.5507593000074849, 1.5683286000275984, 1.5837722000433132, 1.600954300025478, 1.6171088999835774, 1.6330116000026464, 1.6491281000198796, 1.6663418000098318, 1.6821984000271186, 1.7001127999974415, 1.7159213999984786, 1.7328693999443203, 1.749827399966307, 1.7680439000250772, 1.78311770001892, 1.801431700005196, 1.816402900032699, 1.832943300018087, 1.850407899939455, 1.867906800005585, 1.8843731000088155, 1.9002901000203565, 1.9171263999305665, 1.932888700044714, 1.9482996000442654, 1.9673752000089735]
S11;7;0;0;1;False;1000;True;;8;117.0619864292723;drag;L;-4.563819;6.292968;125.95;7.77;1.3319660000270233;1.3320436000358313;1686065496.970172;1686065496.9734664;1686065497.7289624;1686065498.2295368;1686065499.2112627;1686065500.543264;[0.0, 0.0, 0.0, 0.0, 0.0, 0.0, 0.0, 0.0, 0.0, 0.0, 0.0, 0.0, 0.0, 0.0, 0.0, 0.0, 0.0283467, 0.1133868, 0.28346702, 0.39685383, 0.5102406, 0.56693405, 0.59528077, 0.6236274, 0.6236274, 0.6236274, 0.56693405, 0.42520052, 0.2551203, -0.0283467, -0.1700802, -0.53858733, -0.8220543, -1.1055214, -1.5307219, -1.8425356, -2.0409625, -2.381123, -2.57955, -2.8630168, -3.1748307, -3.4866443, -3.911845, -4.1386185, -4.2236586, -4.365392, -4.422086, -4.478779, -4.5071254, -4.5354724, -4.563819, -4.563819, -4.563819, -4.563819, -4.563819, -4.563819, -4.563819, -4.563819, -4.563819, -4.563819, -4.563819, -4.563819, -4.563819, -4.563819, -4.563819, -4.563819, -4.563819, -4.563819, -4.563819, -4.563819, -4.563819, -4.563819, -4.563819, -4.563819, -4.563819, -4.563819, -4.563819, -4.563819, -4.563819, -4.563819];[0.0, 0.0, 0.0, 0.0, 0.0, 0.0, 0.0, 0.0, 0.0, 0.0, 0.0, 0.0, 0.0, 0.0, 0.0, 0.0, 0.0566934, 0.2267736, 0.6803208, 1.0204812, 1.417335, 1.6157619, 1.7574955, 1.899229, 2.0409625, 2.182696, 2.5228565, 2.83467, 3.1748307, 3.6000311, 3.798458, 4.081925, 4.1953115, 4.2803516, 4.365392, 4.3937387, 4.4504323, 4.5354724, 4.5921655, 4.7055526, 4.875633, 5.0740595, 5.4425664, 5.612647, 5.75438, 5.896114, 5.9528074, 5.981154, 6.0095005, 6.037847, 6.094541, 6.1228876, 6.1795807, 6.2079277, 6.2362742, 6.2362742, 6.264621, 6.292968, 6.292968, 6.292968, 6.292968, 6.292968, 6.292968, 6.292968, 6.292968, 6.292968, 6.292968, 6.292968, 6.292968, 6.292968, 6.292968, 6.292968, 6.292968, 6.292968, 6.292968, 6.292968, 6.292968, 6.292968, 6.292968, 6.292968];[0.0035126000875607133, 0.018907500081695616, 0.035471700015477836, 0.05283729999791831, 0.06678460002876818, 0.08600310003384948, 0.10124510002788156, 0.11785800009965897, 0.13363689999096096, 0.15034160006325692, 0.1696726999944076, 0.18437160004395992, 0.19930610002484173, 0.21786950004752725, 0.23421490006148815, 0.2508958000689745, 0.26672479999251664, 0.283576300018467, 0.30202589998953044, 0.3192146000219509, 0.3376046000048518, 0.3516861000098288, 0.3668090000282973, 0.38578690006397665, 0.4003588000778109, 0.4182250000303611, 0.4351828000508249, 0.4502650999929756, 0.46754390001296997, 0.48418100003618747, 0.5009508000221103, 0.5207938000094146, 0.5342630000086501, 0.5519058000063524, 0.5677513000555336, 0.58469580009114, 0.601663300069049, 0.6176093000685796, 0.6335544000612572, 0.6531985000474378, 0.6676576000172645, 0.68359460006468, 0.701244099996984, 0.7175536000868306, 0.7343834000639617, 0.7523644000757486, 0.7682192000793293, 0.7862282000714913, 0.8006886000512168, 0.8182825000258163, 0.835598700097762, 0.8507313000736758, 0.8683660000097007, 0.8845703999977559, 0.9008013000711799, 0.9190577000845224, 0.9333274000091478, 0.9529816000722349, 0.9670090000145137, 0.9840055000968277, 1.0015241000801325, 1.0181821000296623, 1.0337049000663683, 1.051584200002253, 1.0669799000024796, 1.0847100000828505, 1.1000077000353485, 1.117294399999082, 1.13467570010107, 1.151940800016746, 1.1680071000009775, 1.185664499993436, 1.1998739000409842, 1.2183561000274494, 1.233401900040917, 1.2514461000682786, 1.2690291000762954, 1.2828761000419036, 1.2996661000652239, 1.3178916000761092]
S11;8;0;0;1;False;3000;True;;8;150.5830955868187;drag;L;-6.434701;3.996885;148.15;7.57;1.7656029000645503;1.7656782999401912;1686065501.3189511;1686065501.323615;1686065502.0788255;1686065502.5794184;1686065505.5782561;1686065507.3440764;[0.0, 0.0, 0.0, 0.0, 0.0, 0.0, 0.0, 0.0, 0.0, 0.0, 0.0, 0.0, 0.0, 0.0, 0.0, 0.0, 0.0, 0.0, 0.0, 0.0, 0.0, 0.0, 0.0, 0.0, 0.0, 0.0, 0.0, 0.0, 0.0, 0.0, 0.0, 0.0, 0.0, 0.0, 0.0, 0.0, 0.0, 0.0, -0.1133868, -0.4535472, -1.0488279, -1.417335, -1.7858423, -2.2677362, -2.57955, -2.9764037, -3.1748307, -3.4016042, -3.7417645, -3.996885, -4.252005, -4.5921655, -4.875633, -5.0740595, -5.300833, -5.4425664, -5.5843005, -5.75438, -5.924461, -6.037847, -6.1795807, -6.264621, -6.434701, -6.548088, -6.6614747, -6.7181687, -6.7465153, -6.8032084, -6.831555, -6.8599014, -6.8599014, -6.888248, -6.888248, -6.888248, -6.888248, -6.8599014, -6.831555, -6.831555, -6.774862, -6.7465153, -6.6614747, -6.633128, -6.548088, -6.5197415, -6.5197415, -6.4630475, -6.4630475, -6.434701, -6.434701, -6.434701, -6.434701, -6.434701, -6.434701, -6.434701, -6.434701, -6.434701, -6.434701, -6.434701, -6.434701, -6.434701, -6.434701, -6.434701, -6.434701, -6.434701, -6.434701, -6.434701];[0.0, 0.0, 0.0, 0.0, 0.0, 0.0, 0.0, 0.0, 0.0, 0.0, 0.0, 0.0, 0.0, 0.0, 0.0, 0.0, 0.0, 0.0, 0.0, 0.0, 0.0, 0.0, 0.0, 0.0, 0.0, 0.0, 0.0, 0.0, 0.0, 0.0, 0.0, 0.0, 0.0, 0.0, 0.0, 0.0, 0.0, 0.0, 0.1133868, 0.39685383, 0.79370767, 0.9921345, 1.1905615, 1.417335, 1.5590686, 1.7291489, 1.8425356, 1.9275757, 2.0693092, 2.1260026, 2.211043, 2.3527763, 2.4945097, 2.57955, 2.7212832, 2.7779768, 2.8913634, 2.9764037, 3.0330973, 3.0897903, 3.1748307, 3.2315238, 3.3732576, 3.4866443, 3.5716846, 3.6283777, 3.6850712, 3.7417645, 3.770111, 3.770111, 3.798458, 3.8268046, 3.8551514, 3.8551514, 3.8834982, 3.911845, 3.9401915, 3.9401915, 3.968538, 3.968538, 3.968538, 3.996885, 3.996885, 3.996885, 3.996885, 3.996885, 3.996885, 3.996885, 3.996885, 3.996885, 3.996885, 3.996885, 3.996885, 3.996885, 3.996885, 3.996885, 3.996885, 3.996885, 3.996885, 3.996885, 3.996885, 3.996885, 3.996885, 3.996885, 3.996885, 3.996885];[0.003759099985472858, 0.016180699924007058, 0.03369960002601147, 0.05039200000464916, 0.0677323000272736, 0.08307749999221414, 0.09969249996356666, 0.11633520002942532, 0.13447259995155036, 0.14973569998983294, 0.16809249995276332, 0.18303429998923093, 0.20121870003640652, 0.2155736000277102, 0.23491180001292378, 0.24947239994071424, 0.2691909000277519, 0.2844492000294849, 0.30145549995359033, 0.31690810003783554, 0.3336937000276521, 0.3503989999881014, 0.3680570999858901, 0.38313500001095235, 0.40110619994811714, 0.41653119993861765, 0.4338343000272289, 0.4491562999319285, 0.46759859996382147, 0.48353520000819117, 0.5010248000035062, 0.5169116000179201, 0.53355129994452, 0.5490284999832511, 0.5659448000369594, 0.5826538000255823, 0.6017044000327587, 0.6161543999332935, 0.634238800033927, 0.6490186000009999, 0.6672244999790564, 0.6829318000236526, 0.6999140999978408, 0.7152917999774218, 0.7341951000271365, 0.7511239999439567, 0.7669503999641165, 0.782327099936083, 0.8010313999839127, 0.8168462000321597, 0.8338449000148103, 0.8491426999680698, 0.8670673000160605, 0.8824041000334546, 0.8991727000102401, 0.9168335000285879, 0.9335724000120535, 0.9487341999774799, 0.9678967000218108, 0.9820848000235856, 1.0003258000360802, 1.015642200014554, 1.0342087999451905, 1.049572299933061, 1.0662091999547556, 1.0834098999621347, 1.0993387999478728, 1.1157447999576107, 1.1350485000293702, 1.1500200999435037, 1.1681876999791712, 1.1823688999284059, 1.2007204999681562, 1.2158899999922141, 1.2329773999517784, 1.2489734999835491, 1.2680477999383584, 1.2824346999404952, 1.3008837000234053, 1.315403199987486, 1.3338683999609202, 1.349234199966304, 1.3683344000019133, 1.3819937999360263, 1.399833200033754, 1.417096299934201, 1.4318923000246286, 1.4490247999783605, 1.4668341999640688, 1.4826067999238148, 1.5002320000203326, 1.5158246000064537, 1.5338667000178248, 1.5496236999752, 1.5672625999432057, 1.5833440999267623, 1.6004616999998689, 1.61740170000121, 1.6335864999564365, 1.6503981000278145, 1.6681504999287426, 1.6839122000383213, 1.701163599966094, 1.7153475999366492, 1.733696399955079, 1.7499197999713942]
S11;9;0;0;1;False;1000;True;;8;124.48605558217645;drag;L;-4.818939;4.818939;135.0;6.82;1.600195699953474;1.6003083999967203;1686065508.008867;1686065508.022996;1686065508.7789526;1686065509.2795928;1686065510.2615318;1686065511.862082;[0.0, 0.0, 0.0, 0.0, 0.0, 0.0, 0.0, 0.0, 0.0566934, 0.0566934, 0.0566934, 0.0566934, 0.0566934, 0.0566934, 0.0566934, 0.0566934, 0.0283467, -0.0283467, -0.3401604, -0.79370767, -1.5307219, -2.0693092, -2.7212832, -3.713418, -4.365392, -5.1874466, -5.66934, -6.037847, -6.378008, -6.5197415, -6.633128, -6.7181687, -6.7465153, -6.774862, -6.8032084, -6.8032084, -6.8032084, -6.7181687, -6.633128, -6.4630475, -6.3496614, -6.151234, -6.0095005, -5.896114, -5.75438, -5.697687, -5.6409936, -5.5843005, -5.527607, -5.4992604, -5.4992604, -5.4709134, -5.4709134, -5.4709134, -5.4425664, -5.41422, -5.41422, -5.3858733, -5.300833, -5.2441397, -5.1591, -5.1024065, -5.0740595, -5.017366, -4.960673, -4.9039793, -4.875633, -4.847286, -4.818939, -4.818939, -4.818939, -4.818939, -4.818939, -4.818939, -4.818939, -4.818939, -4.818939, -4.818939, -4.818939, -4.818939, -4.818939, -4.818939, -4.818939, -4.818939, -4.818939, -4.818939, -4.818939, -4.818939, -4.818939, -4.818939, -4.818939, -4.818939, -4.818939, -4.818939, -4.818939, -4.818939];[0.0, 0.0, 0.0850401, 0.2267736, 0.4535472, 0.6803208, 1.0204812, 3.0330973, 5.045713, 6.264621, 6.633128, 6.888248, 7.0016356, 7.143369, 7.2000623, 7.228409, 7.2567554, 7.2567554, 7.2000623, 7.1150217, 6.944942, 6.888248, 6.831555, 6.7181687, 6.6047816, 6.292968, 5.981154, 5.75438, 5.4992604, 5.3858733, 5.32918, 5.2724867, 5.2441397, 5.2441397, 5.2441397, 5.2441397, 5.2441397, 5.32918, 5.4425664, 5.5559535, 5.66934, 5.8394203, 5.9528074, 6.0661945, 6.1795807, 6.2079277, 6.2362742, 6.264621, 6.264621, 6.264621, 6.264621, 6.264621, 6.2362742, 6.1795807, 6.1228876, 6.094541, 6.037847, 6.0095005, 5.9528074, 5.896114, 5.896114, 5.8677673, 5.8677673, 5.811074, 5.697687, 5.4709134, 5.32918, 5.215793, 5.1591, 5.0740595, 5.045713, 4.9890194, 4.960673, 4.960673, 4.875633, 4.847286, 4.818939, 4.818939, 4.818939, 4.818939, 4.818939, 4.818939, 4.818939, 4.818939, 4.818939, 4.818939, 4.818939, 4.818939, 4.818939, 4.818939, 4.818939, 4.818939, 4.818939, 4.818939, 4.818939, 4.818939];[0.0038071000017225742, 0.018955099978484213, 0.03259660000912845, 0.05172540002968162, 0.06966100004501641, 0.0852250000461936, 0.1005705000134185, 0.11954300000797957, 0.1343157000374049, 0.15358190005645156, 0.16793910006526858, 0.18582490005064756, 0.20047310006339103, 0.21755090006627142, 0.23296460008714348, 0.2515536000719294, 0.26657460001297295, 0.2838113000616431, 0.30097069998737425, 0.31832110008690506, 0.3372295000590384, 0.3521995000774041, 0.36807980004232377, 0.3850713000865653, 0.4000486000441015, 0.4208279000595212, 0.43443630007095635, 0.451521800016053, 0.4686164000304416, 0.485688199987635, 0.49958110006991774, 0.5186420000391081, 0.5347878000466153, 0.5530139000620693, 0.5677142000058666, 0.5849895999999717, 0.600697600049898, 0.6196539000375196, 0.6344836000353098, 0.6526115000015125, 0.6668102000840008, 0.6864002000074834, 0.7012944000307471, 0.7194472000701353, 0.7369004000211135, 0.7509618999902159, 0.7676614000229165, 0.7851767999818549, 0.8016139999963343, 0.8209264000179246, 0.8337141000665724, 0.8510257999878377, 0.8659158999798819, 0.8864958999911323, 0.9008300000568852, 0.9192630000179633, 0.9347432000795379, 0.9524920000694692, 0.9676371000241488, 0.9864817999769002, 1.0029811999993399, 1.018488800036721, 1.0348757000174373, 1.05176709999796, 1.0671318999957293, 1.0874314000830054, 1.1015782000031322, 1.1184062000829726, 1.1357800000114366, 1.151886900071986, 1.1682865000329912, 1.1854097000323236, 1.2006413000635803, 1.218700100085698, 1.2348150999750942, 1.252989900065586, 1.2697104000253603, 1.2849821000127122, 1.3016221000580117, 1.3178955999901518, 1.3332237000577152, 1.3522009999724105, 1.3679487999761477, 1.3860568000236526, 1.4010597000597045, 1.4193008000729606, 1.4337547000031918, 1.4502920000813901, 1.4683128000469878, 1.485946899978444, 1.501367700053379, 1.5185432999860495, 1.534404700039886, 1.5509017000440508, 1.5675432999851182, 1.5845070000505075]
S11;10;0;0;1;False;1000;True;;8;35.68410546300298;drag;L;6.1795807;4.252005;34.53;7.5;1.8834809999680147;1.8838815999915823;1686065512.5705001;1686065512.5890281;1686065513.3463273;1686065513.846562;1686065514.827987;1686065516.7115912;[0.0, 0.0, 0.0, 0.0, 0.0, 0.0, 0.0, 0.0, 0.0, 0.0, 0.0, 0.0, 0.0, 0.0, 0.0, 0.0, 0.0, 0.0, 0.0, 0.0, 0.0, 0.0, 0.0, 0.0, 0.0, 0.0, 0.0, 0.0, 0.0, 0.0, 0.0, 0.0, 0.0, 0.0, 0.0, 0.0, 0.0, 0.0, 0.0, 0.0, 0.0, 0.0, 0.0, 0.0, 0.0, 0.0, 0.0, 0.0, 0.0, 0.0, 0.0, 0.0, 0.0, 0.0, 0.0, 0.0, 0.0850401, 0.48189393, 0.8220543, 1.332295, 1.7291489, 2.211043, 2.57955, 2.9197102, 3.2598708, 3.6567245, 3.9401915, 4.337045, 4.620512, 4.9039793, 5.045713, 5.1591, 5.300833, 5.4709134, 5.5559535, 5.66934, 5.75438, 5.782727, 5.8677673, 5.9528074, 6.0095005, 6.094541, 6.1228876, 6.151234, 6.1795807, 6.2079277, 6.2079277, 6.2079277, 6.2079277, 6.2079277, 6.1795807, 6.1795807, 6.1795807, 6.1795807, 6.1795807, 6.1795807, 6.1795807, 6.1795807, 6.1795807, 6.1795807, 6.1795807, 6.1795807, 6.1795807, 6.1795807, 6.1795807, 6.1795807, 6.1795807, 6.1795807, 6.1795807, 6.1795807, 6.1795807, 6.1795807, 6.1795807];[0.0, 0.0, 0.0, 0.0, 0.0, 0.0, 0.0, 0.0, 0.0, 0.0, 0.0, 0.0, 0.0, 0.0, 0.0, 0.0, 0.0, 0.0, 0.0, 0.0, 0.0, 0.0, 0.0, 0.0, 0.0, 0.0, 0.0, 0.0, 0.0, 0.0, 0.0, 0.0, 0.0, 0.0, 0.0, 0.0, 0.0, 0.0, 0.0, 0.0, 0.0, 0.0, 0.0, 0.0, 0.0, 0.0, 0.0, 0.0, 0.0, 0.0, 0.0, 0.0, 0.0, 0.0, 0.0, 0.0, 0.0283467, 0.3118137, 0.48189393, 0.7086675, 0.9070944, 1.1055214, 1.2472548, 1.417335, 1.5874153, 1.8708823, 2.0409625, 2.381123, 2.57955, 2.83467, 2.948057, 3.0614438, 3.146484, 3.2598708, 3.316564, 3.4299507, 3.514991, 3.5716846, 3.6850712, 3.770111, 3.8834982, 4.0535784, 4.110272, 4.166965, 4.1953115, 4.2236586, 4.2236586, 4.252005, 4.252005, 4.252005, 4.252005, 4.252005, 4.252005, 4.252005, 4.252005, 4.252005, 4.252005, 4.252005, 4.252005, 4.252005, 4.252005, 4.252005, 4.252005, 4.252005, 4.252005, 4.252005, 4.252005, 4.252005, 4.252005, 4.252005, 4.252005, 4.252005, 4.252005];[0.004048999981023371, 0.019737199996598065, 0.03553460002876818, 0.0521418999414891, 0.0682146999752149, 0.08483469998463988, 0.1003086999990046, 0.11663920001592487, 0.13435409998055547, 0.15159509994555265, 0.1676001000450924, 0.1849423999665305, 0.19996450003236532, 0.21802829997614026, 0.23436370003037155, 0.2515925000188872, 0.2672891999827698, 0.2839735000161454, 0.30084020004142076, 0.3189454999519512, 0.3339480999857187, 0.3514560000039637, 0.36756769998464733, 0.3860325999557972, 0.40037749998737127, 0.4200792999472469, 0.4338955000275746, 0.4511242000153288, 0.46761619998142123, 0.4853189999703318, 0.5000179000198841, 0.5175122999353334, 0.5332569000311196, 0.5512714999495074, 0.5674138999311253, 0.5849169000284746, 0.600538200000301, 0.6184285000199452, 0.6335032000206411, 0.6509638000279665, 0.6669938999693841, 0.6846819999627769, 0.7016402999870479, 0.7184568999800831, 0.733659700024873, 0.7516311999643221, 0.7670294999843463, 0.7847978000063449, 0.8004783999640495, 0.8170009000459686, 0.8333293999312446, 0.8517770000034943, 0.8670842000283301, 0.8858865000074729, 0.900868900003843, 0.9177268999628723, 0.9347571999533102, 0.9510399999562651, 0.9678143999772146, 0.9859277999494225, 1.0001533000031486, 1.0206529999850318, 1.0344906999962404, 1.0505131999962032, 1.0678098000353202, 1.086020000046119, 1.1007028999738395, 1.118541199946776, 1.1341061999555677, 1.1534944999730214, 1.1676987999817356, 1.1838981999317184, 1.2005506999557838, 1.2178094999399036, 1.2337222000351176, 1.2516041999915615, 1.266976699931547, 1.283778200042434, 1.3019718000432476, 1.3188502000411972, 1.3337692000204697, 1.3518917999463156, 1.3666665999917313, 1.38629569998011, 1.4009232999524102, 1.4168136999942362, 1.4336586999706924, 1.451341100037098, 1.4672157999593765, 1.484082299983129, 1.501031499938108, 1.5174495000392199, 1.5332492999732494, 1.5500602000392973, 1.5671401999425143, 1.58422319998499, 1.6017671000445262, 1.618363399989903, 1.633311599958688, 1.6513466000324115, 1.666518499958329, 1.6848405000055209, 1.7000439999392256, 1.7182622000109404, 1.7337632999988273, 1.7511829000432044, 1.7666970000136644, 1.7854061999823898, 1.8007365999510512, 1.8183100000023842, 1.8342508999630809, 1.8509522000094876, 1.867063199984841]
S11;11;0;0;1;False;3000;True;;8;30.132015504722947;drag;L;4.9039793;2.7212832;29.03;5.61;1.464746900019236;1.464838800020516;1686065517.5829108;1686065517.5888722;1686065518.343305;1686065518.8450596;1686065521.8440228;1686065523.3088703;[0.0, 0.0, 0.0, 0.0, 0.0, 0.0, 0.0, 0.0, 0.0, 0.0, 0.0, 0.0, 0.0, 0.0, 0.0, 0.0, 0.0, 0.0, 0.0, 0.0, 0.0, 0.0, 0.0, 0.0, 0.0, 0.0, 0.0, 0.0, 0.0, 0.0, 0.0, 0.0, 0.0, 0.0, 0.19842692, 0.73701423, 1.5307219, 2.012616, 2.2960827, 2.6078966, 3.146484, 3.514991, 3.911845, 4.081925, 4.3086987, 4.422086, 4.5354724, 4.6772056, 4.733899, 4.7905927, 4.818939, 4.847286, 4.847286, 4.875633, 4.9039793, 4.9039793, 4.9039793, 4.9039793, 4.9039793, 4.9039793, 4.9039793, 4.9039793, 4.9039793, 4.9039793, 4.9039793, 4.9039793, 4.9039793, 4.9039793, 4.9039793, 4.9039793, 4.9039793, 4.9039793, 4.9039793, 4.9039793, 4.9039793, 4.9039793, 4.9039793, 4.9039793, 4.9039793, 4.9039793, 4.9039793, 4.9039793, 4.9039793, 4.9039793, 4.9039793, 4.9039793, 4.9039793, 4.9039793];[0.0, 0.0, 0.0, 0.0, 0.0, 0.0, 0.0, 0.0, 0.0, 0.0, 0.0, 0.0, 0.0, 0.0, 0.0, 0.0, 0.0, 0.0, 0.0, 0.0, 0.0, 0.0, 0.0, 0.0, 0.0, 0.0, 0.0, 0.0, 0.0, 0.0, 0.0, 0.0, 0.0, 0.0, 0.14173351, 0.48189393, 0.96378785, 1.2472548, 1.417335, 1.5874153, 1.8708823, 2.0976558, 2.2677362, 2.3244295, 2.4378164, 2.4945097, 2.5512033, 2.6078966, 2.6362433, 2.6362433, 2.66459, 2.6929367, 2.6929367, 2.6929367, 2.6929367, 2.6929367, 2.6929367, 2.6929367, 2.6929367, 2.6929367, 2.6929367, 2.6929367, 2.6929367, 2.6929367, 2.6929367, 2.7212832, 2.7212832, 2.7212832, 2.7212832, 2.7212832, 2.7212832, 2.7212832, 2.7212832, 2.7212832, 2.7212832, 2.7212832, 2.7212832, 2.7212832, 2.7212832, 2.7212832, 2.7212832, 2.7212832, 2.7212832, 2.7212832, 2.7212832, 2.7212832, 2.7212832, 2.7212832];[0.004620800027623773, 0.01654670003335923, 0.03321730007883161, 0.051089600077830255, 0.06900160002987832, 0.08417929999995977, 0.10274140001274645, 0.11714370001573116, 0.13490960001945496, 0.15218390000518411, 0.16763989999890327, 0.18331440002657473, 0.20085310004651546, 0.2178141000913456, 0.23574410006403923, 0.2501380000030622, 0.26719680009409785, 0.28345200000330806, 0.30121360009070486, 0.3172007000539452, 0.33491309999953955, 0.35063950007315725, 0.36824360000900924, 0.3833989000413567, 0.40129710000474006, 0.4173024999909103, 0.43455440003890544, 0.4497573000844568, 0.46831570006906986, 0.4841077000601217, 0.5006922000320628, 0.5160745000466704, 0.5336640001041815, 0.5506910000694916, 0.5696767000481486, 0.5845141001045704, 0.6036479000467807, 0.6166552000213414, 0.6345845999894664, 0.6505145000992343, 0.6675155000993982, 0.6828623000765219, 0.7022596000460908, 0.7162292000139132, 0.7383453000802547, 0.7514193000970408, 0.7670624000020325, 0.7861006000312045, 0.8017768000718206, 0.8165745000587776, 0.8348594000563025, 0.8519190000370145, 0.8678321000188589, 0.8827718000393361, 0.9013658000621945, 0.9164901000913233, 0.9339838000014424, 0.9498710000189021, 0.9676383000332862, 0.9829069999977946, 1.001642300048843, 1.0162945000920445, 1.0353260000701994, 1.0496850000927225, 1.0686989000532776, 1.0863315000897273, 1.1004308999981731, 1.1168756000697613, 1.1342952999984846, 1.1503384000388905, 1.1683044000528753, 1.1832613000879064, 1.2010689000599086, 1.2161855000304058, 1.2353492000838742, 1.2508424000116065, 1.266020500101149, 1.2833838000660762, 1.3013814000878483, 1.3171691000461578, 1.3349860000889748, 1.3501461000414565, 1.367954000015743, 1.3830628000432625, 1.4006865000119433, 1.4162184000015259, 1.4338814000366256, 1.4512497000396252]
S11;12;0;0;1;False;3000;True;;8;-56.292917753274956;drag;L;4.7905927;-6.1795807;-52.22;7.82;1.7156169000081718;1.7157364999875426;1686065524.027398;1686065524.038228;1686065524.794986;1686065525.295247;1686065528.293038;1686065530.0095248;[0.0, 0.0, 0.0, 0.0, 0.0, 0.0, 0.0, 0.0, 0.0, 0.0, 0.0, 0.0, 0.0, 0.0, 0.0, 0.0, 0.0, 0.0, 0.0, 0.0, 0.0, 0.0, 0.0, 0.0, 0.0, 0.0, 0.0, 0.0, 0.0, 0.0, 0.0, 0.0, 0.0, 0.0, 0.0, 0.0, 0.0, 0.0, 0.0, 0.2551203, 1.5023751, 2.3527763, 2.8630168, 3.6283777, 4.025232, 4.3937387, 4.932326, 5.1591, 5.2724867, 5.3575263, 5.4425664, 5.4425664, 5.4709134, 5.4992604, 5.4992604, 5.527607, 5.5559535, 5.5559535, 5.5843005, 5.5843005, 5.5843005, 5.5843005, 5.5843005, 5.5559535, 5.4709134, 5.41422, 5.2724867, 5.215793, 5.130753, 5.1024065, 5.045713, 5.017366, 4.9890194, 4.960673, 4.960673, 4.932326, 4.9039793, 4.9039793, 4.875633, 4.847286, 4.847286, 4.818939, 4.818939, 4.818939, 4.818939, 4.818939, 4.818939, 4.818939, 4.818939, 4.7905927, 4.7905927, 4.7905927, 4.7905927, 4.7905927, 4.7905927, 4.7905927, 4.7905927, 4.7905927, 4.7905927, 4.7905927, 4.7905927, 4.7905927, 4.7905927];[0.0, 0.0, 0.0, 0.0, 0.0, 0.0, 0.0, 0.0, 0.0, 0.0, 0.0, 0.0, 0.0, 0.0, 0.0, 0.0, 0.0, 0.0, 0.0, 0.0, 0.0, 0.0, 0.0, 0.0, 0.0, 0.0, 0.0, 0.0, 0.0, 0.0, 0.0, 0.0, 0.0, 0.0, 0.0, 0.0, 0.0, 0.0, 0.0, -0.19842692, -1.5874153, -2.6929367, -3.4016042, -4.3937387, -4.960673, -5.4992604, -6.2362742, -6.5764346, -6.8032084, -6.9165955, -7.029982, -7.0583286, -7.1150217, -7.143369, -7.1717157, -7.228409, -7.313449, -7.341796, -7.341796, -7.3701425, -7.3701425, -7.3701425, -7.3701425, -7.285102, -7.1717157, -7.0583286, -6.888248, -6.8032084, -6.7181687, -6.6898212, -6.6047816, -6.6047816, -6.5764346, -6.548088, -6.548088, -6.4630475, -6.434701, -6.378008, -6.292968, -6.264621, -6.2362742, -6.2079277, -6.2079277, -6.1795807, -6.1795807, -6.1795807, -6.1795807, -6.1795807, -6.1795807, -6.1795807, -6.1795807, -6.1795807, -6.1795807, -6.1795807, -6.1795807, -6.1795807, -6.1795807, -6.1795807, -6.1795807, -6.1795807, -6.1795807, -6.1795807, -6.1795807];[0.0045683999778702855, 0.01713769999332726, 0.035116399987600744, 0.05053779995068908, 0.0682094000512734, 0.0837098000338301, 0.10100150003563613, 0.11625850002747029, 0.13403880002442747, 0.15063910000026226, 0.16922919999342412, 0.1844799000537023, 0.20079030003398657, 0.21758549998048693, 0.23571669997181743, 0.2519028000533581, 0.26741369999945164, 0.2830804999684915, 0.30127970001194626, 0.31667580001521856, 0.3359723000321537, 0.35077270003966987, 0.36790860001929104, 0.385498599964194, 0.40140380000229925, 0.4184774999739602, 0.4355722999898717, 0.4512801000382751, 0.46843280002940446, 0.48393240000586957, 0.5019024000503123, 0.5180723000084981, 0.5348357000621036, 0.5488844000501558, 0.5677750000031665, 0.5839162999764085, 0.6006472000153735, 0.6186097000027075, 0.6347769000567496, 0.6507605999941006, 0.6681378000648692, 0.6828291000565514, 0.7024636999703944, 0.7175393999787048, 0.736515500000678, 0.7497384999878705, 0.7677578000584617, 0.7841648999601603, 0.8025836000451818, 0.8183266000123695, 0.8372431000461802, 0.8506652000360191, 0.8696303999749944, 0.8877312999684364, 0.9004292000317946, 0.9184005999704823, 0.9352810999844223, 0.9522422000300139, 0.9691935000009835, 0.9841238999506459, 1.001283699995838, 1.0175326999742538, 1.0344225000590086, 1.0515404000179842, 1.069496399955824, 1.0852122000651434, 1.1039606999838725, 1.1176001999992877, 1.136141199967824, 1.1509654000401497, 1.1678573000244796, 1.1845699000405148, 1.2014757000142708, 1.217619500006549, 1.2360048999544233, 1.2515721999807283, 1.2691686999751255, 1.2853256999514997, 1.301336699980311, 1.318282000022009, 1.3362328000366688, 1.3524527000263333, 1.368916800012812, 1.3856192999519408, 1.40143079997506, 1.417918200022541, 1.4366520000621676, 1.4528962000040337, 1.468009200063534, 1.484799399971962, 1.501893899985589, 1.517970300046727, 1.5362164999824017, 1.5527496000286192, 1.568571800016798, 1.5836696999613196, 1.6022930999752134, 1.6169405999826267, 1.6368675000267103, 1.6501470999792218, 1.6684737000614405, 1.6833495000610128, 1.701107500004582]
S11;13;0;0;1;False;1000;True;;8;-7.217648189806212;drag;L;8.645744;-2.466163;-15.92;8.99;2.015271699987352;2.0159337000222877;1686065530.7523928;1686065530.7723975;1686065531.5290842;1686065532.029634;1686065533.010363;1686065535.0260613;[0.0, 0.0, 0.0, 0.0, 0.0, 0.0, 0.0, 0.0, -0.0283467, -0.0566934, -0.1133868, -0.2267736, -0.3401604, -0.53858733, -0.6236274, -0.73701423, -0.79370767, -0.9070944, -0.96378785, -1.0204812, -1.0204812, -1.0488279, -1.0488279, -1.0488279, -1.0488279, -0.9921345, -0.9070944, -0.5102406, -0.0850401, 0.53858733, 0.93544114, 1.3889884, 1.984269, 2.466163, 3.6567245, 5.2441397, 6.1795807, 6.5197415, 6.6614747, 6.6614747, 6.6614747, 6.6614747, 6.6614747, 6.6614747, 6.6614747, 6.6614747, 6.6614747, 6.6614747, 6.6614747, 6.6614747, 6.6614747, 6.6614747, 6.6614747, 6.6614747, 6.6614747, 6.6614747, 6.6614747, 6.6614747, 6.6614747, 6.6614747, 6.6614747, 6.6614747, 6.6614747, 6.6614747, 6.6614747, 6.6614747, 6.6614747, 6.6614747, 6.6614747, 6.6614747, 6.6614747, 6.6614747, 6.6614747, 6.6614747, 6.6614747, 6.9732885, 7.228409, 7.5118756, 7.8520365, 8.022117, 8.192197, 8.305584, 8.362277, 8.447317, 8.475664, 8.532357, 8.560703, 8.58905, 8.617397, 8.645744, 8.645744, 8.645744, 8.645744, 8.645744, 8.645744, 8.645744, 8.645744, 8.645744, 8.645744, 8.645744, 8.645744, 8.645744, 8.645744, 8.645744, 8.645744, 8.645744, 8.645744, 8.645744, 8.645744, 8.645744, 8.645744, 8.645744, 8.645744, 8.645744, 8.645744, 8.645744, 8.645744, 8.645744, 8.645744, 8.645744, 8.645744];[0.0, 0.0, 0.0, 0.0, 0.0, 0.0, 0.0, 0.0850401, 0.3401604, 0.53858733, 0.79370767, 1.2756016, 1.6724553, 2.2393894, 2.5228565, 2.7779768, 2.9764037, 3.2031772, 3.316564, 3.4299507, 3.4582977, 3.4866443, 3.4866443, 3.4866443, 3.4866443, 3.3732576, 3.2315238, 2.7496302, 2.2960827, 1.7291489, 1.5023751, 1.3606416, 1.2756016, 1.2472548, 1.1055214, 0.73701423, 0.4535472, 0.2551203, 0.1700802, 0.1133868, 0.1133868, 0.1133868, 0.1133868, 0.1133868, 0.1133868, 0.1133868, 0.1133868, 0.1133868, 0.1133868, 0.1133868, 0.1133868, 0.1133868, 0.1133868, 0.1133868, 0.1133868, 0.1133868, 0.1133868, 0.1133868, 0.1133868, 0.1133868, 0.1133868, 0.1133868, 0.1133868, 0.1133868, 0.1133868, 0.1133868, 0.1133868, 0.1133868, 0.1133868, 0.1133868, 0.1133868, 0.1133868, 0.1133868, 0.1133868, 0.1133868, -0.19842692, -0.4535472, -0.6803208, -1.0771747, -1.2189082, -1.417335, -1.5023751, -1.5590686, -1.6157619, -1.7008021, -1.7574955, -1.8425356, -1.9559225, -2.012616, -2.1260026, -2.211043, -2.2677362, -2.3244295, -2.3527763, -2.381123, -2.4094696, -2.4378164, -2.4378164, -2.466163, -2.466163, -2.466163, -2.466163, -2.466163, -2.466163, -2.466163, -2.466163, -2.466163, -2.466163, -2.466163, -2.466163, -2.466163, -2.466163, -2.466163, -2.466163, -2.466163, -2.466163, -2.466163, -2.466163, -2.466163, -2.466163, -2.466163];[0.004283700021915138, 0.018617400084622204, 0.034896900062449276, 0.053606600034981966, 0.06797750003170222, 0.08545680006500334, 0.10030010004993528, 0.11746960005257279, 0.13608160009607673, 0.1501277000643313, 0.1666687000542879, 0.18441560002975166, 0.2001665000570938, 0.21941220003645867, 0.23409400007221848, 0.2511612999951467, 0.267056200071238, 0.28406239999458194, 0.3001979000400752, 0.3177065000636503, 0.3338742000050843, 0.35312480002176017, 0.36785270005930215, 0.38476320006884634, 0.4011424999916926, 0.41898409998975694, 0.4345055000158027, 0.4514150000177324, 0.4673490000423044, 0.4863203000277281, 0.500309000024572, 0.5194996000500396, 0.5362215000204742, 0.5514062000438571, 0.5711491000838578, 0.5842572000110522, 0.6003155000507832, 0.6228132999967784, 0.6335589000955224, 0.6515015000477433, 0.6671072000171989, 0.6854920000769198, 0.7003697000909597, 0.7188811000669375, 0.7342478000791743, 0.7527732000453398, 0.7665349000599235, 0.7836163000902161, 0.7997252000495791, 0.8180796999949962, 0.8338749000104144, 0.850930800079368, 0.8671359000727534, 0.8836526999948546, 0.9003920000977814, 0.9175986000336707, 0.9335944000631571, 0.9511822999920696, 0.9666679000947624, 0.9845488000428304, 1.0004687000764534, 1.0169271000195295, 1.0334513999987394, 1.050243900041096, 1.066561600076966, 1.0838124000001699, 1.1003415000159293, 1.1189156000036746, 1.132902300101705, 1.1522827000590041, 1.1657841000705957, 1.1834032000042498, 1.198389200028032, 1.216787200071849, 1.233523500035517, 1.2518877000547945, 1.2655754000879824, 1.2835449000122026, 1.300711000105366, 1.3158796000061557, 1.3358792000217363, 1.3499542000936344, 1.3669454000191763, 1.3844706000527367, 1.3994733000872657, 1.4187604000326246, 1.4327162000117823, 1.4504788999911398, 1.466043599997647, 1.4833441000664607, 1.499468500027433, 1.5163071000715718, 1.5327695000451058, 1.550719300052151, 1.56802950007841, 1.583474300103262, 1.5986153000267223, 1.6169998000841588, 1.6335512000368908, 1.6501957000000402, 1.6651610000990331, 1.6835824000881985, 1.698611200088635, 1.7153731000144035, 1.7321433000033721, 1.7499206000939012, 1.7654112000018358, 1.7828919000457972, 1.7996182000497356, 1.8163573000347242, 1.8335889000445604, 1.8505830999929458, 1.8667632000287995, 1.8835279000923038, 1.9000535000814125, 1.9169042001012713, 1.9345365000190213, 1.9522095000138506, 1.966058099991642, 1.9833508000010625, 1.9999902000417933]
S11;14;0;0;1;False;1000;True;;8;-84.67587183463583;drag;L;2.2960827;-6.6898212;-71.06;7.07;2.3842905999626964;2.384330799919553;1686065535.874736;1686065535.8886628;1686065536.6425104;1686065537.1450438;1686065538.124406;1686065540.5093591;[0.0, 0.0, 0.0, 0.0, 0.0, 0.0, 0.0, 0.0, 0.0, 0.0, 0.0, 0.0, 0.0, 0.0, 0.0, 0.0, 0.0, 0.0, 0.0, 0.0, 0.0, 0.0, 0.0, 0.0, 0.0, 0.0, 0.0, 0.0, 0.0, 0.0, 0.0, 0.0, 0.0, 0.0, 0.0, 0.0, 0.0, 0.0, 0.0, 0.0, 0.0, 0.0, 0.0, 0.0, 0.0, 0.0, 0.0, 0.0, 0.0, 0.36850712, 0.5102406, 0.65197414, 0.76536095, 0.8220543, 0.9070944, 0.96378785, 1.0204812, 1.0204812, 1.0488279, 1.0771747, 1.1055214, 1.1338681, 1.1338681, 1.1338681, 1.1338681, 1.1338681, 1.1338681, 1.1338681, 1.1338681, 1.1338681, 1.1338681, 1.1338681, 1.1622148, 1.1905615, 1.2189082, 1.2472548, 1.2756016, 1.2756016, 1.3039483, 1.3889884, 1.4456817, 1.5307219, 1.5874153, 1.6724553, 1.7291489, 1.7574955, 1.7574955, 1.8141888, 1.8425356, 1.8425356, 1.8708823, 1.8708823, 1.899229, 1.899229, 1.899229, 1.899229, 1.9275757, 1.9559225, 1.9559225, 1.984269, 1.984269, 2.012616, 2.012616, 2.012616, 2.012616, 2.0409625, 2.0409625, 2.0693092, 2.0693092, 2.0976558, 2.0976558, 2.1260026, 2.1260026, 2.1543493, 2.182696, 2.182696, 2.211043, 2.211043, 2.2393894, 2.2393894, 2.2677362, 2.2960827, 2.2960827, 2.2960827, 2.2960827, 2.2960827, 2.2960827, 2.2960827, 2.2960827, 2.2960827, 2.2960827, 2.2960827, 2.2960827, 2.2960827, 2.2960827, 2.2960827, 2.2960827, 2.2960827, 2.2960827, 2.2960827, 2.2960827, 2.2960827, 2.2960827];[0.0, 0.0, 0.0, 0.0, 0.0, 0.0, 0.0, 0.0, 0.0, 0.0, 0.0, 0.0, 0.0, 0.0, 0.0, 0.0, 0.0, 0.0, 0.0, 0.0, 0.0, 0.0, 0.0, 0.0, 0.0, 0.0, 0.0, 0.0, 0.0, 0.0, 0.0, 0.0, 0.0, 0.0, 0.0, 0.0, 0.0, 0.0, 0.0, 0.0, 0.0, 0.0, 0.0, 0.0, 0.0, 0.0, 0.0, 0.0, -0.1700802, -1.8708823, -2.5512033, -3.2882173, -3.6567245, -3.9401915, -4.2803516, -4.478779, -4.6772056, -4.932326, -5.0740595, -5.2724867, -5.41422, -5.5843005, -5.697687, -5.811074, -5.8677673, -5.9528074, -5.981154, -6.0095005, -6.037847, -6.037847, -6.0661945, -6.094541, -6.1228876, -6.2079277, -6.2079277, -6.264621, -6.264621, -6.292968, -6.292968, -6.321315, -6.321315, -6.378008, -6.4063544, -6.434701, -6.434701, -6.4630475, -6.4630475, -6.491395, -6.5197415, -6.548088, -6.5764346, -6.5764346, -6.6047816, -6.6047816, -6.6047816, -6.6047816, -6.633128, -6.633128, -6.6614747, -6.6614747, -6.6614747, -6.6614747, -6.6614747, -6.6614747, -6.6614747, -6.6614747, -6.6614747, -6.6614747, -6.6614747, -6.6614747, -6.6614747, -6.6614747, -6.6614747, -6.6614747, -6.6614747, -6.6614747, -6.6614747, -6.6614747, -6.6614747, -6.6898212, -6.6898212, -6.6898212, -6.6898212, -6.6898212, -6.6898212, -6.6898212, -6.6898212, -6.6898212, -6.6898212, -6.6898212, -6.6898212, -6.6898212, -6.6898212, -6.6898212, -6.6898212, -6.6898212, -6.6898212, -6.6898212, -6.6898212, -6.6898212, -6.6898212, -6.6898212, -6.6898212];[0.003440000000409782, 0.019166799960657954, 0.03545309999026358, 0.052267399965785444, 0.068234600010328, 0.08611089992336929, 0.10182520002126694, 0.11970579996705055, 0.13532689993735403, 0.15235109999775887, 0.16882070002611727, 0.18832139996811748, 0.200722899986431, 0.2195734999841079, 0.2362417000113055, 0.25338160002138466, 0.2697059999918565, 0.2875153999775648, 0.3031549999723211, 0.31913159997202456, 0.33530869998503476, 0.35306440002750605, 0.36921429994981736, 0.3864506999962032, 0.4018086999421939, 0.41923459991812706, 0.435028399922885, 0.4521621000021696, 0.46953210001811385, 0.4847010999219492, 0.5016360000008717, 0.5191753000253811, 0.5353958000196144, 0.553728099912405, 0.5688115999801084, 0.5861390000209212, 0.6025397999910638, 0.6184784999350086, 0.6356018999358639, 0.6527944999979809, 0.6690546999452636, 0.684862699941732, 0.7012558999704197, 0.720369299990125, 0.7338454999262467, 0.7517542999703437, 0.7689009999157861, 0.7856011999538168, 0.8042934000259265, 0.8199482000200078, 0.8346711000194773, 0.8562899000244215, 0.8682715999893844, 0.8855572999455035, 0.9044244999531657, 0.9191377999959514, 0.9371021999977529, 0.952428099932149, 0.9683775999583304, 0.9880734999896958, 1.0022327000042424, 1.0199783999705687, 1.0375919999787584, 1.0527179000200704, 1.0696855999995023, 1.0872692000120878, 1.1031074000056833, 1.1207075000274926, 1.1357276999624446, 1.1526617999188602, 1.1688885999610648, 1.1862610999960452, 1.2022697000065818, 1.2190457999240607, 1.2350664000259712, 1.254388100001961, 1.2693907999200746, 1.288055400014855, 1.3011225999798626, 1.3189563999185339, 1.3365525000263005, 1.3532921000150964, 1.3684878000058234, 1.3892727999482304, 1.4023192999884486, 1.4189787999494001, 1.4348702999996021, 1.4521106999600306, 1.4697500999318436, 1.4863744999747723, 1.50197099999059, 1.5190543999196962, 1.5356557000195608, 1.55210879992228, 1.5688437999924645, 1.585058799944818, 1.602674899972044, 1.6195698999799788, 1.6349796999711543, 1.6545213999925181, 1.6687720000045374, 1.6861174999503419, 1.7024731999263167, 1.719936899957247, 1.7374097999418154, 1.753835799987428, 1.7688279999420047, 1.7880529999965802, 1.8014297999907285, 1.8191957999952137, 1.835097000002861, 1.852763699949719, 1.8693356999428943, 1.8857586999656633, 1.9015473999315873, 1.9192120999796316, 1.9360886999638751, 1.9527514999499545, 1.9680216999258846, 1.9860968999564648, 2.002977399970405, 2.0195836999919266, 2.034676000010222, 2.0527834999375045, 2.0689397000242025, 2.0855086999945343, 2.1018121999222785, 2.1197770999278873, 2.135497499955818, 2.1518447999842465, 2.1687049999600276, 2.185472499928437, 2.2016326999291778, 2.2193517999257892, 2.2355228000087664, 2.2524615000002086, 2.268775000004098, 2.286075699958019, 2.301678100018762, 2.3195427999598905, 2.3346022999612615, 2.352089599939063, 2.3680023999186233]
S11;15;0;0;1;False;3000;True;;8;134.08527747067566;drag;L;-4.7055526;4.5354724;136.05;6.54;1.5649206000380218;1.5649787998991087;1686065541.3128078;1686065541.321891;1686065542.076017;1686065542.5781002;1686065545.5755596;1686065547.1404817;[0.0, 0.0, 0.0, 0.0, 0.0, 0.0, 0.0, 0.0, 0.0, 0.0, 0.0, 0.0, 0.0, 0.0, 0.0, 0.0, 0.0, 0.0, 0.0, 0.0, 0.0, 0.0, 0.0, 0.0, 0.0, 0.0, 0.0, 0.0, 0.0, 0.0, 0.0, 0.0, 0.0, 0.0, 0.0, 0.0, 0.0, 0.0, 0.0, 0.0, 0.0, 0.0, 0.0, 0.0, -0.6236274, -0.93544114, -1.2472548, -1.417335, -1.6441087, -2.0693092, -2.381123, -2.6078966, -2.7779768, -2.948057, -3.146484, -3.2031772, -3.2882173, -3.4299507, -3.5433376, -3.6850712, -3.798458, -3.8834982, -3.968538, -4.0535784, -4.1386185, -4.252005, -4.3086987, -4.422086, -4.5071254, -4.5354724, -4.5921655, -4.620512, -4.620512, -4.648859, -4.648859, -4.648859, -4.648859, -4.648859, -4.7055526, -4.7055526, -4.7055526, -4.7055526, -4.7055526, -4.7055526, -4.7055526, -4.7055526, -4.7055526, -4.7055526, -4.7055526, -4.7055526, -4.7055526, -4.7055526, -4.7055526, -4.7055526];[0.0, 0.0, 0.0, 0.0, 0.0, 0.0, 0.0, 0.0, 0.0, 0.0, 0.0, 0.0, 0.0, 0.0, 0.0, 0.0, 0.0, 0.0, 0.0, 0.0, 0.0, 0.0, 0.0, 0.0, 0.0, 0.0, 0.0, 0.0, 0.0, 0.0, 0.0, 0.0, 0.0, 0.0, 0.0, 0.0, 0.0, 0.0, 0.0, 0.0, 0.0, 0.0, 0.0, 0.0, 1.1905615, 1.6441087, 2.0409625, 2.2393894, 2.466163, 2.7779768, 3.0330973, 3.2315238, 3.4016042, 3.5716846, 3.770111, 3.8834982, 3.996885, 4.110272, 4.1953115, 4.337045, 4.3937387, 4.4504323, 4.478779, 4.478779, 4.5071254, 4.5071254, 4.5071254, 4.5071254, 4.5071254, 4.5354724, 4.5354724, 4.5354724, 4.5354724, 4.5354724, 4.5354724, 4.5354724, 4.5354724, 4.5354724, 4.5354724, 4.5354724, 4.5354724, 4.5354724, 4.5354724, 4.5354724, 4.5354724, 4.5354724, 4.5354724, 4.5354724, 4.5354724, 4.5354724, 4.5354724, 4.5354724, 4.5354724, 4.5354724];[0.0039981999434530735, 0.01732280000578612, 0.03567719995044172, 0.05133179994300008, 0.06879609997849911, 0.0858447999926284, 0.10187119990587234, 0.11759169993456453, 0.135485399980098, 0.15151719993446022, 0.17111999995540828, 0.18370479997247458, 0.20164399989880621, 0.21777759992983192, 0.23569879995193332, 0.2511639998992905, 0.26988759997766465, 0.28543940000236034, 0.30171959998551756, 0.31796359992586076, 0.33536299993284047, 0.3521113999886438, 0.36874169996008277, 0.38551009993534535, 0.40160649991594255, 0.41811839991714805, 0.4352370999986306, 0.45200039993505925, 0.46866369992494583, 0.4849652999546379, 0.5018791999900714, 0.5186635999707505, 0.5358744999393821, 0.5515092000132427, 0.5709960999665782, 0.583979899995029, 0.602201999980025, 0.6178205999312922, 0.6347141999285668, 0.6511371999513358, 0.6678662999765947, 0.6839134999318048, 0.7018807999556884, 0.7164191999472678, 0.7337782999966294, 0.7507084999233484, 0.7669667999725789, 0.7842038999078795, 0.8012084999354556, 0.8173275999724865, 0.8381993999937549, 0.85158599994611, 0.8684623999288306, 0.8844138999702409, 0.90059749991633, 0.9175466999877244, 0.9337667999789119, 0.9509545000037178, 0.967369299964048, 0.9834527999628335, 1.0001713999081403, 1.0161377999465913, 1.0330327999545261, 1.0497624999843538, 1.067004399956204, 1.0834056999301538, 1.1002020000014454, 1.1167240999639034, 1.133743799990043, 1.1492091999389231, 1.1670326999155805, 1.182697599986568, 1.2008144999854267, 1.216742999968119, 1.2330814999295399, 1.2499254998983815, 1.2656358999665827, 1.282247099909, 1.3003223999403417, 1.3163392998976633, 1.333635599934496, 1.3494164999574423, 1.3666454999474809, 1.3822649999056011, 1.3991497999522835, 1.4157116999849677, 1.4331591000081971, 1.44952399993781, 1.4661757999565452, 1.4827129999175668, 1.4998570999596268, 1.5164845999097452, 1.5332840000046417, 1.5489525999873877]
S11;16;0;0;1;False;3000;True;;8;126.18293452742068;drag;L;-5.2441397;5.7260337;132.48;7.76;1.649424400064163;1.649543600040488;1686065547.9052894;1686065547.920349;1686065548.6760783;1686065549.1783464;1686065552.176057;1686065553.8257892;[0.0, 0.0, 0.0, 0.0, 0.0, 0.0, 0.0, 0.0, 0.0, 0.0, 0.0, 0.0, 0.0, 0.0, 0.0, 0.0, 0.0, 0.0, 0.0, 0.0, 0.0, 0.0, 0.0, 0.0, 0.0, 0.0, 0.0, 0.0, 0.0, 0.0, 0.0, 0.0, 0.0, 0.0, 0.0, 0.0, 0.0, 0.0, 0.0, 0.0, 0.0, 0.0, -0.19842692, -0.9070944, -1.3606416, -1.7008021, -2.211043, -2.5228565, -2.8630168, -3.0614438, -3.4016042, -3.6000311, -3.8268046, -4.166965, -4.365392, -4.5921655, -4.7055526, -4.7905927, -4.875633, -4.932326, -4.960673, -4.9890194, -5.017366, -5.045713, -5.0740595, -5.0740595, -5.1024065, -5.1024065, -5.130753, -5.1591, -5.215793, -5.215793, -5.2441397, -5.2441397, -5.2724867, -5.2724867, -5.300833, -5.300833, -5.300833, -5.300833, -5.300833, -5.2724867, -5.2441397, -5.2441397, -5.2441397, -5.2441397, -5.2441397, -5.2441397, -5.2441397, -5.2441397, -5.2441397, -5.2441397, -5.2441397, -5.2441397, -5.2441397, -5.2441397, -5.2441397, -5.2441397, -5.2441397];[0.0, 0.0, 0.0, 0.0, 0.0, 0.0, 0.0, 0.0, 0.0, 0.0, 0.0, 0.0, 0.0, 0.0, 0.0, 0.0, 0.0, 0.0, 0.0, 0.0, 0.0, 0.0, 0.0, 0.0, 0.0, 0.0, 0.0, 0.0, 0.0, 0.0, 0.0, 0.0, 0.0, 0.0, 0.0, 0.0, 0.0, 0.0, 0.0, 0.0, 0.0, 0.0, 0.2267736, 1.1055214, 1.6724553, 2.0976558, 2.7212832, 3.0897903, 3.4866443, 3.6850712, 4.0535784, 4.2236586, 4.3937387, 4.563819, 4.648859, 4.733899, 4.762246, 4.7905927, 4.818939, 4.875633, 4.9039793, 4.9039793, 4.960673, 4.9890194, 5.0740595, 5.1024065, 5.1874466, 5.2441397, 5.3575263, 5.41422, 5.527607, 5.5843005, 5.612647, 5.6409936, 5.66934, 5.697687, 5.697687, 5.7260337, 5.7260337, 5.7260337, 5.7260337, 5.7260337, 5.7260337, 5.7260337, 5.7260337, 5.7260337, 5.7260337, 5.7260337, 5.7260337, 5.7260337, 5.7260337, 5.7260337, 5.7260337, 5.7260337, 5.7260337, 5.7260337, 5.7260337, 5.7260337, 5.7260337];[0.003834900096990168, 0.01808880001772195, 0.03613520006183535, 0.051113000023178756, 0.06702870002482086, 0.08462340000551194, 0.1020914000691846, 0.11829890008084476, 0.13387730007525533, 0.14985760010313243, 0.16917180002201349, 0.18536340002901852, 0.20025059999898076, 0.21851270005572587, 0.23566370003391057, 0.25083840009756386, 0.2696605999954045, 0.2834413000382483, 0.30201000010129064, 0.3187847000081092, 0.335544400033541, 0.3505977999884635, 0.3689513000426814, 0.38495080010034144, 0.40216040005907416, 0.4177528000436723, 0.43527320004068315, 0.4514101000968367, 0.46754970005713403, 0.48431880003772676, 0.5006020000437275, 0.5177858000388369, 0.5361855000955984, 0.5510059000225738, 0.5691955999936908, 0.5851606000214815, 0.6022915000794455, 0.6178963000420481, 0.6350516000529751, 0.6527125000720844, 0.666909100022167, 0.6844322000397369, 0.7042833000887185, 0.7179282000288367, 0.736332600004971, 0.7503064000047743, 0.7677188999950886, 0.7852447000332177, 0.8018905000062659, 0.8174996000016108, 0.836245600017719, 0.8503833001013845, 0.8683748000767082, 0.885266000055708, 0.9007010000059381, 0.9199379000347108, 0.935479500098154, 0.9519942000042647, 0.9700285000726581, 0.9842549000168219, 1.00194750004448, 1.0167374000884593, 1.0337756000226364, 1.04943470004946, 1.0676472000777721, 1.0842677000910044, 1.101830100058578, 1.117271100054495, 1.1348542000632733, 1.1496607000008225, 1.1684501999989152, 1.1849273000843823, 1.200310799991712, 1.2162237000884488, 1.2356941000325605, 1.2507284000748768, 1.2679326999932528, 1.2839337000623345, 1.299478100030683, 1.314443700015545, 1.3324828000040725, 1.3487542000366375, 1.3677131000440568, 1.3829763000831008, 1.4019185000797734, 1.4169386000139639, 1.4348223000997677, 1.4507956000743434, 1.4682100000791252, 1.4837090000510216, 1.502082800026983, 1.5177311000879854, 1.535704500041902, 1.5510535000357777, 1.5681857999879867, 1.5833778000669554, 1.6018548000138253, 1.6171635000500828, 1.6355421000625938]
S11;17;0;0;1;False;1000;True;;8;18.37436002274587;drag;L;8.135503;1.5590686;10.85;8.28;1.6006615000078455;1.6007793999742717;1686065554.6353803;1686065554.6540747;1686065555.4095752;1686065555.9104288;1686065556.8914223;1686065558.492848;[0.0, 0.0, 0.0, 0.0, 0.0, 0.0, 0.0, 0.0, 0.0, 0.0, 0.0, 0.0, 0.0, 0.0, 0.0, 0.0, 0.0, 0.0, 0.0, 0.0, 0.0, 0.0, 0.0, 0.0, 0.0, 0.0, 0.0, 0.0, 0.0, 0.0, 0.0, 0.0, 0.0, 0.0, 0.0, 0.0, 0.0, 0.0, 0.0, 0.0, 0.0, 0.0, 0.0, 0.0, 0.0, 0.0, 0.36850712, 1.0771747, 2.1260026, 2.7779768, 3.316564, 4.025232, 4.365392, 4.875633, 5.2441397, 5.697687, 6.1228876, 6.6898212, 7.029982, 7.341796, 7.483529, 7.6252627, 7.710303, 7.7669964, 7.795343, 7.8520365, 7.880383, 7.9654226, 7.99377, 8.050464, 8.07881, 8.107157, 8.135503, 8.135503, 8.135503, 8.135503, 8.135503, 8.135503, 8.135503, 8.135503, 8.135503, 8.135503, 8.135503, 8.135503, 8.135503, 8.135503, 8.135503, 8.135503, 8.135503, 8.135503, 8.135503, 8.135503, 8.135503, 8.135503, 8.135503, 8.135503];[0.0, 0.0, 0.0, 0.0, 0.0, 0.0, 0.0, 0.0, 0.0, 0.0, 0.0, 0.0, 0.0, 0.0, 0.0, 0.0, 0.0, 0.0, 0.0, 0.0, 0.0, 0.0, 0.0, 0.0, 0.0, 0.0, 0.0, 0.0, 0.0, 0.0, 0.0, 0.0, 0.0, 0.0, 0.0, 0.0, 0.0, 0.0, 0.0, 0.0, 0.0, 0.0, 0.0, 0.0, 0.0, 0.0, 0.1700802, 0.5102406, 0.8220543, 0.96378785, 1.0488279, 1.0771747, 1.1055214, 1.1055214, 1.1055214, 1.1055214, 1.1055214, 1.1622148, 1.2472548, 1.3606416, 1.4456817, 1.5307219, 1.5590686, 1.5874153, 1.5874153, 1.5874153, 1.5874153, 1.5874153, 1.5874153, 1.5590686, 1.5590686, 1.5590686, 1.5590686, 1.5590686, 1.5590686, 1.5590686, 1.5590686, 1.5590686, 1.5590686, 1.5590686, 1.5590686, 1.5590686, 1.5590686, 1.5590686, 1.5590686, 1.5590686, 1.5590686, 1.5590686, 1.5590686, 1.5590686, 1.5590686, 1.5590686, 1.5590686, 1.5590686, 1.5590686, 1.5590686];[0.003395400010049343, 0.018527799984440207, 0.034611099981702864, 0.051554600009694695, 0.06723170005716383, 0.08602909999899566, 0.10099190007895231, 0.11985530005767941, 0.1349089000141248, 0.1516214000293985, 0.16744059999473393, 0.1858709000516683, 0.20005099999252707, 0.21909320005215704, 0.23410980007611215, 0.252624100074172, 0.26764360000379384, 0.2848237999714911, 0.3005898999981582, 0.3178256000392139, 0.33504380006343126, 0.3518249000189826, 0.36690080002881587, 0.3843966000713408, 0.40074620000086725, 0.4183345000492409, 0.43420720007270575, 0.45190440001897514, 0.46770500007551163, 0.48447939998004586, 0.500988700077869, 0.5185105999698862, 0.5352420000126585, 0.5519787999801338, 0.5679215000709519, 0.5857587000355124, 0.6016153000527993, 0.618335000006482, 0.6347218999871984, 0.6515922000398859, 0.6677273000823334, 0.6848884000210091, 0.7002413000445813, 0.7177117000101134, 0.7335951999993995, 0.7516524000093341, 0.7670035000192001, 0.7851756999734789, 0.804530999972485, 0.8169845000375062, 0.8335183999733999, 0.8513658000156283, 0.8664853000082076, 0.8875428000465035, 0.9007219000486657, 0.9181809000438079, 0.933045900077559, 0.9512601000024006, 0.967137600062415, 0.9850996000459418, 1.000057699973695, 1.0219683999894187, 1.0338495000032708, 1.0513701000018045, 1.0691098000388592, 1.0853927000425756, 1.0996597000630572, 1.1180751000065356, 1.1340596000663936, 1.1538110000547022, 1.1673935999860987, 1.18538699997589, 1.2012253999710083, 1.2173211000626907, 1.233763900003396, 1.2519088999833912, 1.267013799981214, 1.2855676000472158, 1.3006430000532418, 1.3177928000222892, 1.3347807000391185, 1.3519072000635788, 1.3675722000189126, 1.385437500081025, 1.4011145000113174, 1.4185096999863163, 1.4348407000070438, 1.4521110000787303, 1.4680039000231773, 1.4851210999768227, 1.5009090000530705, 1.5192428000736982, 1.5333174000261351, 1.5524343000724912, 1.566649500047788, 1.5846175000770018]
