subj;trial;block;prior;kappa;ct;delay;fix;keypressed;R;T_Angle;resp_mod;choice_x;choice_y;init_resp_angle;choiceAngle;choiceR;RT;MT;ts_b;ts_f;ts_p;ts_d;ts_r;ts_e;m_pos_x;m_pos_y;m_clock
S13;0;0;0;1;False;3000;True;;8;-89.23389063710262;drag;L;-1.1622148;-8.220544;-98.05;8.3;2.132733799982816;2.132798600010574;1686135257.1977804;1686135257.203781;1686135257.9608448;1686135258.4613557;1686135261.459052;1686135263.5923188;[0.0, 0.0, 0.0, 0.0, 0.0, 0.0, 0.0, 0.0, 0.0, 0.0, 0.0, 0.0, 0.0, 0.0, 0.0, 0.0, 0.0, 0.0, 0.0, 0.0, 0.0, 0.0, 0.0, 0.0, 0.0, 0.0, 0.0, 0.0, 0.0, 0.0, 0.0, 0.0, 0.0, 0.0, 0.0, 0.0, -0.0283467, -0.14173351, -0.2267736, -0.39685383, -0.53858733, -0.65197414, -0.73701423, -0.87874776, -0.9070944, -1.0771747, -1.332295, -1.417335, -1.4740285, -1.5023751, -1.5307219, -1.5874153, -1.6724553, -1.7008021, -1.7291489, -1.7291489, -1.7291489, -1.7291489, -1.7291489, -1.7291489, -1.7291489, -1.7291489, -1.7574955, -1.7574955, -1.7574955, -1.7574955, -1.7574955, -1.7574955, -1.7574955, -1.7574955, -1.7574955, -1.7574955, -1.7574955, -1.7574955, -1.7574955, -1.7574955, -1.7574955, -1.7574955, -1.7574955, -1.7574955, -1.7574955, -1.7574955, -1.7008021, -1.6441087, -1.5874153, -1.5307219, -1.5023751, -1.4740285, -1.4456817, -1.417335, -1.417335, -1.3889884, -1.3889884, -1.3606416, -1.3606416, -1.3039483, -1.3039483, -1.2756016, -1.2756016, -1.2472548, -1.2472548, -1.2472548, -1.1905615, -1.1905615, -1.1622148, -1.1622148, -1.1338681, -1.1338681, -1.1338681, -1.1338681, -1.1338681, -1.1338681, -1.1338681, -1.1622148, -1.1622148, -1.1622148, -1.1622148, -1.1622148, -1.1622148, -1.1622148, -1.1622148, -1.1622148, -1.1622148, -1.1622148, -1.1622148, -1.1622148, -1.1622148, -1.1622148];[0.0, 0.0, 0.0, 0.0, 0.0, 0.0, 0.0, 0.0, 0.0, 0.0, 0.0, 0.0, 0.0, 0.0, 0.0, 0.0, 0.0, 0.0, 0.0, 0.0, 0.0, 0.0, 0.0, 0.0, 0.0, 0.0, 0.0, 0.0, 0.0, 0.0, 0.0, 0.0, 0.0, 0.0, 0.0, 0.0, -0.14173351, -0.3401604, -0.6803208, -1.1055214, -1.8141888, -2.2393894, -2.6362433, -3.0897903, -3.3732576, -3.996885, -4.9039793, -5.4425664, -5.782727, -5.9528074, -6.292968, -6.5764346, -7.0016356, -7.2567554, -7.3984895, -7.540222, -7.6536093, -7.710303, -7.7669964, -7.82369, -7.8520365, -7.8520365, -7.8520365, -7.82369, -7.795343, -7.795343, -7.795343, -7.795343, -7.795343, -7.795343, -7.795343, -7.795343, -7.795343, -7.795343, -7.795343, -7.795343, -7.795343, -7.795343, -7.795343, -7.795343, -7.795343, -7.82369, -7.8520365, -7.9087296, -7.937076, -7.9654226, -7.99377, -8.022117, -8.022117, -8.050464, -8.050464, -8.07881, -8.07881, -8.107157, -8.135503, -8.135503, -8.16385, -8.16385, -8.16385, -8.16385, -8.16385, -8.16385, -8.192197, -8.192197, -8.220544, -8.220544, -8.24889, -8.277237, -8.277237, -8.277237, -8.277237, -8.277237, -8.277237, -8.220544, -8.220544, -8.220544, -8.220544, -8.220544, -8.220544, -8.220544, -8.220544, -8.220544, -8.220544, -8.220544, -8.220544, -8.220544, -8.220544, -8.220544];[0.0047391001135110855, 0.017974100075662136, 0.03677930007688701, 0.05165649997070432, 0.07016540016047657, 0.08600300014950335, 0.10312470002099872, 0.11937339999713004, 0.13623229996301234, 0.15306270006112754, 0.1691364999860525, 0.18548560002818704, 0.20170720014721155, 0.21925980015657842, 0.23619840014725924, 0.2515245000831783, 0.26887380005791783, 0.28610000014305115, 0.30264360015280545, 0.31856340006925166, 0.3355845999903977, 0.35150140011683106, 0.36993609997443855, 0.38486040011048317, 0.40231240005232394, 0.41870230017229915, 0.4353082000743598, 0.4523950000293553, 0.47000390011817217, 0.4845577001105994, 0.5026644000317901, 0.5184218001086265, 0.5352274000179023, 0.552350000012666, 0.5684059001505375, 0.5840749000199139, 0.6040750001557171, 0.6189401000738144, 0.6357106999494135, 0.6523206001147628, 0.6694664000533521, 0.6860891000833362, 0.7020787999499589, 0.7181609000544995, 0.73653220012784, 0.7529974000062793, 0.7682819999754429, 0.7852000000420958, 0.802218500059098, 0.8185837999917567, 0.8357997999992222, 0.8522298000752926, 0.8720901999622583, 0.8849526001140475, 0.9036378001328558, 0.9186204001307487, 0.9352983001153916, 0.9522520999889821, 0.9687487999908626, 0.9840252001304179, 1.0034964999649674, 1.0185386000666767, 1.0366079001687467, 1.0522865999955684, 1.069039599969983, 1.0856723999604583, 1.1034202999435365, 1.1194823000114411, 1.1364072000142187, 1.1517338000703603, 1.1689188000746071, 1.1845806001219898, 1.2020938000641763, 1.2184768000151962, 1.2349750001449138, 1.2506905000191182, 1.2687805001623929, 1.284757100045681, 1.3007875001057982, 1.3169710000511259, 1.3342619000468403, 1.3505087001249194, 1.3698009001091123, 1.384685300057754, 1.405261400155723, 1.4191403000149876, 1.4354363000020385, 1.452951000072062, 1.4699870001059026, 1.4868861001450568, 1.503319500014186, 1.5182624999433756, 1.5354208999779075, 1.552163700107485, 1.5696136001497507, 1.5848281001672149, 1.600831300020218, 1.6169251000974327, 1.635283299954608, 1.6510367000009865, 1.6686023001093417, 1.6845262001734227, 1.700599400093779, 1.7181504000909626, 1.7354403000790626, 1.7521466000471264, 1.7679387000389397, 1.784173300024122, 1.8012926999945194, 1.817112100077793, 1.8350897999480367, 1.8512403001077473, 1.8675574001390487, 1.8842152999714017, 1.9012770000845194, 1.919084999943152, 1.935927600134164, 1.9516435000114143, 1.968666800064966, 1.984819300007075, 2.001391900004819, 2.0188462000805885, 2.0348980999551713, 2.050535700051114, 2.068095900118351, 2.08576160017401, 2.1006620000116527, 2.118577599991113]
S13;1;0;0;1;False;1000;True;;8;74.08466340806335;drag;L;2.8913634;8.07881;70.31;8.58;1.967279199976474;1.9675839999690652;1686135264.2903724;1686135264.3058302;1686135265.059462;1686135265.560716;1686135266.5421255;1686135268.5103834;[0.0, 0.0, 0.0, 0.0, 0.0, 0.0, 0.0, 0.0, 0.0, 0.0, 0.0, 0.0, 0.0, 0.0, 0.0, 0.0, 0.0, 0.0, 0.0, 0.0, 0.0, 0.0, 0.0, 0.0, 0.0, 0.0, 0.0, 0.0, 0.0, 0.0, 0.0, 0.0, 0.0, 0.0, 0.0, 0.2267736, 0.4535472, 0.4535472, 0.4535472, 0.5102406, 0.5102406, 0.56693405, 0.6236274, 0.65197414, 0.7086675, 0.73701423, 0.8220543, 0.93544114, 1.0488279, 1.1338681, 1.1905615, 1.2472548, 1.417335, 2.0409625, 2.2960827, 2.4378164, 2.4945097, 2.5512033, 2.57955, 2.6078966, 2.6078966, 2.6078966, 2.6362433, 2.6362433, 2.66459, 2.66459, 2.6929367, 2.7212832, 2.7212832, 2.7496302, 2.7496302, 2.7496302, 2.7779768, 2.7779768, 2.8063235, 2.8063235, 2.83467, 2.83467, 2.8630168, 2.8630168, 2.8630168, 2.8630168, 2.8630168, 2.8630168, 2.8630168, 2.8630168, 2.8630168, 2.8630168, 2.8630168, 2.8630168, 2.8630168, 2.8630168, 2.8630168, 2.8630168, 2.8630168, 2.8630168, 2.8630168, 2.8630168, 2.8913634, 2.8913634, 2.8913634, 2.8913634, 2.8913634, 2.8913634, 2.8913634, 2.8913634, 2.8913634, 2.8913634, 2.8913634, 2.8913634, 2.8913634, 2.8913634, 2.8913634, 2.8913634, 2.8913634, 2.8913634, 2.8913634, 2.8913634];[0.0, 0.0, 0.0, 0.0, 0.0, 0.0, 0.0, 0.0, 0.0, 0.0, 0.0, 0.0, 0.0, 0.0, 0.0, 0.0, 0.0, 0.0, 0.0, 0.0, 0.0, 0.0, 0.0, 0.0, 0.0, 0.0, 0.0, 0.0, 0.0, 0.0, 0.0, 0.0, 0.0, 0.0, 0.0, 0.87874776, 2.1543493, 2.4094696, 2.6078966, 2.8913634, 3.0897903, 3.4016042, 3.6283777, 3.8268046, 3.996885, 4.1953115, 4.337045, 4.648859, 4.9039793, 5.1024065, 5.32918, 5.527607, 5.9528074, 7.7386494, 8.33393, 8.58905, 8.67409, 8.702437, 8.730784, 8.7591305, 8.7591305, 8.7591305, 8.7591305, 8.7874775, 8.7874775, 8.7874775, 8.815824, 8.815824, 8.815824, 8.815824, 8.815824, 8.815824, 8.815824, 8.815824, 8.7874775, 8.7591305, 8.730784, 8.702437, 8.67409, 8.617397, 8.560703, 8.532357, 8.50401, 8.447317, 8.390623, 8.390623, 8.390623, 8.362277, 8.33393, 8.305584, 8.277237, 8.24889, 8.220544, 8.192197, 8.192197, 8.135503, 8.135503, 8.107157, 8.07881, 8.07881, 8.07881, 8.07881, 8.07881, 8.07881, 8.07881, 8.07881, 8.07881, 8.07881, 8.07881, 8.07881, 8.07881, 8.07881, 8.07881, 8.07881, 8.07881, 8.07881, 8.07881, 8.07881];[0.004921300103887916, 0.019077599979937077, 0.035972499987110496, 0.05366560001857579, 0.06873399997130036, 0.0866882000118494, 0.10115300002507865, 0.11862249998375773, 0.13499099994078279, 0.1529496000148356, 0.16860780003480613, 0.18690790003165603, 0.20198490004986525, 0.2201038000639528, 0.23344330000691116, 0.2521842001006007, 0.269160799914971, 0.28486880008131266, 0.29984170012176037, 0.31910960003733635, 0.3352330999914557, 0.3526888000778854, 0.36941349995322526, 0.3875691001303494, 0.4029280000831932, 0.4191892999224365, 0.43592129996977746, 0.4519122000783682, 0.4683413999155164, 0.4853964000940323, 0.5022573999594897, 0.5188367001246661, 0.5354820000939071, 0.553800499998033, 0.5693419000599533, 0.5870493999682367, 0.6063540000468493, 0.6182343000546098, 0.635640500113368, 0.6538394999224693, 0.6688411999493837, 0.6887952999677509, 0.7027821000665426, 0.7197370000649244, 0.7357880000490695, 0.7518998999148607, 0.7701093000359833, 0.7875063000246882, 0.800652600126341, 0.8195354999043047, 0.8356552999466658, 0.8528615001123399, 0.8674783001188189, 0.886822999920696, 0.903074000030756, 0.9200057000853121, 0.9344021000433713, 0.9520105000119656, 0.9680661000311375, 0.9849916000384837, 1.00139160011895, 1.0189942000433803, 1.0369740000460297, 1.0526485999580473, 1.0673114000819623, 1.0857027999591082, 1.1012355999555439, 1.1189524000510573, 1.1363993999548256, 1.1523190001025796, 1.1679621001239866, 1.1854463999625295, 1.2020107000134885, 1.2184325999114662, 1.2343699000775814, 1.2513445001095533, 1.2716968001332134, 1.2883292001206428, 1.3010607999749482, 1.3213218001183122, 1.334603700088337, 1.3515306999906898, 1.3677054999861866, 1.3853591999504715, 1.4059663999360055, 1.4176117000170052, 1.4343560999259353, 1.4536719000898302, 1.4682203999254853, 1.4887489001266658, 1.5026579000987113, 1.5176723999902606, 1.53511289996095, 1.5511717000044882, 1.5675077000632882, 1.5864985000807792, 1.6004769001156092, 1.6208391000982374, 1.6358485999517143, 1.6507796999067068, 1.667642599903047, 1.685520499944687, 1.7014649999327958, 1.7174378999043256, 1.733399200020358, 1.7516276000533253, 1.7675799999851733, 1.7861385000869632, 1.8025831000413746, 1.8198102000169456, 1.835147599922493, 1.8530772000085562, 1.8690025000832975, 1.885897400090471, 1.9020728000905365, 1.9193985001184046, 1.9355172999203205, 1.95221980009228]
S13;2;0;0;1;False;3000;True;;8;73.99793913604795;drag;L;3.0897903;7.341796;67.18;7.97;2.3011985002085567;2.301297300029546;1686135269.3108885;1686135269.3218904;1686135270.0772123;1686135270.578463;1686135273.5765114;1686135275.8778296;[0.0, 0.0, 0.0, 0.0, 0.0, 0.0, 0.0, 0.0, 0.0, 0.0, 0.0, 0.0, 0.0, 0.0, 0.0, 0.0, 0.0, 0.0, 0.0, 0.0, 0.0, 0.0, 0.0, 0.0, 0.0, 0.0, 0.0, 0.0, 0.0, 0.0, 0.0, 0.0, 0.0, 0.0, 0.0, 0.0, 0.0, 0.0, 0.0, 0.0, 0.0, 0.0, 0.0566934, 0.1133868, 0.19842692, 0.2551203, 0.28346702, 0.4535472, 0.59528077, 0.7086675, 0.79370767, 0.85040104, 0.9070944, 1.1055214, 1.332295, 1.5023751, 1.6157619, 1.6441087, 1.6724553, 1.7291489, 2.0693092, 2.211043, 2.2677362, 2.2677362, 2.2960827, 2.3244295, 2.5512033, 2.9197102, 2.9764037, 3.0047503, 3.0047503, 3.0047503, 3.0330973, 3.0330973, 3.0330973, 3.0330973, 3.0330973, 3.0330973, 3.0330973, 3.0614438, 3.0614438, 3.0614438, 3.0897903, 3.0897903, 3.0897903, 3.0897903, 3.0897903, 3.0897903, 3.0897903, 3.0897903, 3.0897903, 3.0897903, 3.0897903, 3.0897903, 3.0897903, 3.0897903, 3.0897903, 3.0897903, 3.0897903, 3.0897903, 3.0897903, 3.0897903, 3.0897903, 3.0897903, 3.1181371, 3.1181371, 3.146484, 3.1748307, 3.1748307, 3.2031772, 3.2031772, 3.2031772, 3.2031772, 3.2031772, 3.2031772, 3.2031772, 3.2031772, 3.2031772, 3.1748307, 3.1748307, 3.1748307, 3.146484, 3.146484, 3.1181371, 3.1181371, 3.1181371, 3.0897903, 3.0897903, 3.0897903, 3.0897903, 3.0897903, 3.0897903, 3.0897903, 3.0897903, 3.0897903, 3.0897903, 3.0897903, 3.0897903];[0.0, 0.0, 0.0, 0.0, 0.0, 0.0, 0.0, 0.0, 0.0, 0.0, 0.0, 0.0, 0.0, 0.0, 0.0, 0.0, 0.0, 0.0, 0.0, 0.0, 0.0, 0.0, 0.0, 0.0, 0.0, 0.0, 0.0, 0.0, 0.0, 0.0, 0.0, 0.0, 0.0, 0.0, 0.0, 0.0, 0.0, 0.0, 0.0, 0.0, 0.0, 0.0, 0.2551203, 0.53858733, 0.8220543, 0.9921345, 1.1338681, 1.4456817, 1.7008021, 1.9275757, 2.1260026, 2.211043, 2.3244295, 2.66459, 3.0897903, 3.4582977, 3.6850712, 3.7417645, 3.8268046, 3.996885, 5.017366, 5.32918, 5.4992604, 5.612647, 5.7260337, 5.811074, 6.151234, 6.8032084, 6.944942, 7.0583286, 7.0583286, 7.086675, 7.1150217, 7.1150217, 7.1150217, 7.1150217, 7.1150217, 7.1150217, 7.1150217, 7.1150217, 7.086675, 7.086675, 7.086675, 7.029982, 7.029982, 7.029982, 7.029982, 7.029982, 7.029982, 7.029982, 7.0016356, 7.0016356, 7.0016356, 7.0016356, 7.0016356, 7.0016356, 7.0016356, 7.0016356, 7.0016356, 7.0016356, 7.0016356, 7.0016356, 7.0016356, 7.0016356, 7.0016356, 7.0016356, 7.029982, 7.0583286, 7.0583286, 7.086675, 7.1150217, 7.1150217, 7.1717157, 7.1717157, 7.2000623, 7.228409, 7.228409, 7.228409, 7.2567554, 7.2567554, 7.313449, 7.313449, 7.341796, 7.341796, 7.341796, 7.341796, 7.341796, 7.341796, 7.341796, 7.341796, 7.341796, 7.341796, 7.341796, 7.341796, 7.341796, 7.341796, 7.341796, 7.341796];[0.004400500096380711, 0.017547799972817302, 0.03464470012113452, 0.050009400118142366, 0.06890340009704232, 0.08392490004189312, 0.10181300016120076, 0.11705010011792183, 0.13524650014005601, 0.1510250000283122, 0.16891300003044307, 0.18423549993894994, 0.20048610004596412, 0.21762380003929138, 0.23549879994243383, 0.249561500037089, 0.2694941000081599, 0.28438890003599226, 0.3020140000153333, 0.31756080011837184, 0.33425460010766983, 0.35053199995309114, 0.36882989993318915, 0.3831792001146823, 0.4012709001544863, 0.41690660011954606, 0.43386840005405247, 0.45050120004452765, 0.46804290008731186, 0.4836385000962764, 0.5016564000397921, 0.5157918001059443, 0.5358800999820232, 0.5498184999451041, 0.5683766000438482, 0.5830699999351054, 0.6011133000720292, 0.6158631001599133, 0.6340567001607269, 0.6505509000271559, 0.668046300066635, 0.6840803001541644, 0.7016000000294298, 0.7164358999580145, 0.7365776000078768, 0.7490608999505639, 0.76769999996759, 0.7856602999381721, 0.799632600042969, 0.8159545001108199, 0.8343547999393195, 0.8496983000077307, 0.8684279001317918, 0.8837919000070542, 0.9020358000416309, 0.9170059999451041, 0.9336387000512332, 0.9498976999893785, 0.9670206001028419, 0.9825210000853986, 1.0043339000549167, 1.0171622999478132, 1.0331818000413477, 1.0504575001541525, 1.0671006999909878, 1.0833511999808252, 1.1004792000167072, 1.1167383999563754, 1.1334611000493169, 1.1506000999361277, 1.166330800158903, 1.1850544000044465, 1.1990116001106799, 1.2157565001398325, 1.2344162999652326, 1.249916800064966, 1.2680563000030816, 1.2828265000134706, 1.3006450000684708, 1.3161713001318276, 1.3361156000755727, 1.3500517001375556, 1.366577500011772, 1.3837874000892043, 1.4008061001077294, 1.4168251999653876, 1.434042900102213, 1.4508861999493092, 1.4661664001177996, 1.4822685001417994, 1.5026498001534492, 1.516363900154829, 1.5339006001595408, 1.5487220000941306, 1.567460099933669, 1.582769599976018, 1.6000944999977946, 1.6167592001147568, 1.6345665000844747, 1.649921900127083, 1.6676318000536412, 1.6825838999357074, 1.6989885000512004, 1.7155939999502152, 1.7316477000713348, 1.7486042000818998, 1.768475100165233, 1.7830887001473457, 1.8003708999603987, 1.8173287999816239, 1.8345829001627862, 1.8504399000667036, 1.866672300035134, 1.8833380001597106, 1.9021853001322597, 1.9161966000683606, 1.932798800058663, 1.950203400105238, 1.9675771000329405, 1.9836027000565082, 2.0000206001568586, 2.016857299953699, 2.0351091001648456, 2.0500340000726283, 2.0682733999565244, 2.083545600064099, 2.098564699990675, 2.1150671001523733, 2.133489000145346, 2.1502219999674708, 2.1677425999660045, 2.183217399986461, 2.201941099949181, 2.215622999938205, 2.235023200046271, 2.2495500999502838, 2.2675469999667257, 2.283488200046122]
S13;3;0;0;1;False;1000;True;;8;72.51077547602273;drag;L;2.2677362;7.5685697;73.32;7.9;2.333634600043297;2.3336855000816286;1686135276.591445;1686135276.604832;1686135277.3597496;1686135277.861087;1686135278.8408792;1686135281.1747777;[0.0, 0.0, 0.0, 0.0, 0.0, 0.0, 0.0, 0.0, 0.0, 0.0, 0.0, 0.0, 0.0, 0.0, 0.0, 0.0, 0.0, 0.0, 0.0, 0.0, 0.0, 0.0, 0.0, 0.0, 0.0, 0.0, 0.0, 0.0, 0.0, 0.0, 0.0, 0.0, 0.0, 0.0, 0.0, 0.0, 0.0, 0.0, 0.0, 0.0, 0.0, 0.0, 0.0, 0.2551203, 0.8220543, 0.96378785, 0.9921345, 1.0204812, 1.0204812, 1.0488279, 1.1055214, 1.1338681, 1.1622148, 1.1905615, 1.1905615, 1.2472548, 1.3606416, 1.4740285, 1.5023751, 1.5307219, 1.5307219, 1.6441087, 2.8063235, 3.5716846, 3.5716846, 3.5716846, 3.5716846, 3.5716846, 3.5716846, 3.5716846, 3.5716846, 3.5433376, 3.5433376, 3.514991, 3.514991, 3.4866443, 3.4582977, 3.4582977, 3.4299507, 3.3449106, 3.2882173, 3.1748307, 3.146484, 3.0614438, 3.0614438, 3.0330973, 3.0047503, 2.9764037, 2.9764037, 2.948057, 2.948057, 2.9197102, 2.9197102, 2.8913634, 2.8630168, 2.8630168, 2.83467, 2.8063235, 2.7779768, 2.7212832, 2.6078966, 2.5512033, 2.5228565, 2.466163, 2.4378164, 2.4378164, 2.4094696, 2.381123, 2.3527763, 2.3244295, 2.3244295, 2.2960827, 2.2960827, 2.2677362, 2.2677362, 2.2393894, 2.2393894, 2.2393894, 2.2393894, 2.2393894, 2.2393894, 2.2393894, 2.2393894, 2.2393894, 2.2677362, 2.2677362, 2.2677362, 2.2677362, 2.2677362, 2.2677362, 2.2677362, 2.2677362, 2.2677362, 2.2677362, 2.2677362, 2.2677362, 2.2677362, 2.2677362, 2.2677362, 2.2677362];[0.0, 0.0, 0.0, 0.0, 0.0, 0.0, 0.0, 0.0, 0.0, 0.0, 0.0, 0.0, 0.0, 0.0, 0.0, 0.0, 0.0, 0.0, 0.0, 0.0, 0.0, 0.0, 0.0, 0.0, 0.0, 0.0, 0.0, 0.0, 0.0, 0.0, 0.0, 0.0, 0.0, 0.0, 0.0, 0.0, 0.0, 0.0, 0.0, 0.0, 0.0, 0.0, 0.0, 0.8220543, 2.2960827, 2.9764037, 3.0897903, 3.2031772, 3.2598708, 3.3449106, 3.4866443, 3.5716846, 3.6850712, 3.713418, 3.770111, 3.911845, 4.081925, 4.337045, 4.4504323, 4.5071254, 4.563819, 4.7905927, 7.143369, 8.7874775, 8.844172, 8.844172, 8.844172, 8.844172, 8.844172, 8.844172, 8.844172, 8.844172, 8.844172, 8.844172, 8.815824, 8.815824, 8.815824, 8.815824, 8.815824, 8.815824, 8.7591305, 8.702437, 8.702437, 8.67409, 8.67409, 8.645744, 8.58905, 8.560703, 8.532357, 8.475664, 8.447317, 8.447317, 8.390623, 8.362277, 8.33393, 8.305584, 8.24889, 8.220544, 8.192197, 8.135503, 8.050464, 7.99377, 7.9654226, 7.9087296, 7.880383, 7.880383, 7.8520365, 7.795343, 7.7669964, 7.7669964, 7.7386494, 7.681956, 7.681956, 7.6252627, 7.6252627, 7.596916, 7.5685697, 7.5685697, 7.5685697, 7.5685697, 7.5685697, 7.5685697, 7.5685697, 7.5685697, 7.5685697, 7.5685697, 7.5685697, 7.5685697, 7.5685697, 7.5685697, 7.5685697, 7.5685697, 7.5685697, 7.5685697, 7.5685697, 7.5685697, 7.5685697, 7.5685697, 7.5685697, 7.5685697];[0.0042097000405192375, 0.019786200020462275, 0.03664790000766516, 0.055482600117102265, 0.06913079996593297, 0.08515239995904267, 0.10018229996785522, 0.11718000005930662, 0.13493880000896752, 0.15179020003415644, 0.16797620011493564, 0.18745800014585257, 0.2018897000234574, 0.21833540010266006, 0.2345843999646604, 0.25251569994725287, 0.26956290006637573, 0.2869748999364674, 0.3033894000109285, 0.32082320004701614, 0.33617580006830394, 0.3537525001447648, 0.3699138001538813, 0.38773289998061955, 0.4033848999533802, 0.42065150011330843, 0.43684490001760423, 0.45460069994442165, 0.4699814999476075, 0.4867815999314189, 0.5026696999557316, 0.5194890999700874, 0.535763000138104, 0.5538162000011653, 0.5700077000074089, 0.5880063001532108, 0.6017647001426667, 0.6205539000220597, 0.6358241999987513, 0.6532268000300974, 0.6694716999772936, 0.6865831001196057, 0.701640099985525, 0.7208656999282539, 0.7354469001293182, 0.7539948001503944, 0.7700622000265867, 0.7875256999395788, 0.8019646001048386, 0.8193960001226515, 0.8348106001503766, 0.8524935999885201, 0.8706455000210553, 0.8892358001321554, 0.9033522999379784, 0.9196222999598831, 0.9361253001261503, 0.9547747001051903, 0.9692788000684232, 0.9881565000396222, 1.0024057000409812, 1.019307600101456, 1.0372975000645965, 1.0538474000059068, 1.0696779999416322, 1.0868516999762505, 1.1016180999577045, 1.1197455001529306, 1.1360059001017362, 1.1543809999711812, 1.1699256000574678, 1.186723800143227, 1.2031580000184476, 1.2225530000869185, 1.2373333999421448, 1.2551925999578089, 1.2707785000093281, 1.2876796999480575, 1.3035929000470787, 1.3204475999809802, 1.3372076000086963, 1.3552844999358058, 1.369393000146374, 1.3909609999973327, 1.4016355001367629, 1.420335200149566, 1.4395032001193613, 1.4538497999310493, 1.4702375000342727, 1.488597100134939, 1.5033118000719696, 1.5197102001402527, 1.5375196000095457, 1.5545574999414384, 1.5688058000523597, 1.5867439999710768, 1.6031871000304818, 1.620292100124061, 1.635307100135833, 1.6537073999643326, 1.6714757001027465, 1.6871863999404013, 1.7022776000667363, 1.7203246999997646, 1.7386708999983966, 1.754240799928084, 1.7706216999795288, 1.789751200005412, 1.8020856000948697, 1.8218503999523818, 1.835696600144729, 1.8545250000897795, 1.869141099974513, 1.8901011000853032, 1.9017463999334723, 1.92007500003092, 1.9379674000665545, 1.9528638001065701, 1.9688441001344472, 1.9878102000802755, 2.0030501999426633, 2.0208864000160247, 2.035527199972421, 2.0526113000232726, 2.0693153999745846, 2.087319300044328, 2.1029209000989795, 2.1199743000324816, 2.135517700109631, 2.153590900124982, 2.1693732000421733, 2.187445000046864, 2.2024630000814795, 2.2204351001419127, 2.2356360000558197, 2.254357400117442, 2.2695270001422614, 2.2876411001197994, 2.3022255001123995, 2.320130500011146]
S13;4;0;0;1;False;1000;True;;8;-164.23871843275018;drag;L;-6.1795807;-2.83467;-155.36;6.8;1.217777700163424;1.2178301999811083;1686135281.8662376;1686135281.8711104;1686135282.6264772;1686135283.1260931;1686135284.107393;1686135285.3253899;[0.0, 0.0, 0.0, -0.28346702, -1.6157619, -2.4378164, -3.2031772, -3.8268046, -4.4504323, -5.2724867, -5.6409936, -5.8394203, -5.924461, -5.981154, -5.981154, -6.0095005, -6.0095005, -6.0095005, -6.0095005, -6.0095005, -6.0095005, -6.0095005, -6.0095005, -6.0095005, -6.0095005, -6.0095005, -6.0095005, -6.0095005, -6.0095005, -6.0095005, -6.0095005, -6.0095005, -6.0095005, -6.0095005, -6.0095005, -6.0095005, -6.0095005, -6.0095005, -6.0661945, -6.094541, -6.094541, -6.1228876, -6.1228876, -6.151234, -6.151234, -6.1795807, -6.2079277, -6.2079277, -6.2079277, -6.2079277, -6.2079277, -6.2079277, -6.2079277, -6.2079277, -6.2079277, -6.2079277, -6.2079277, -6.2079277, -6.2079277, -6.2079277, -6.1795807, -6.1795807, -6.1795807, -6.1795807, -6.1795807, -6.1795807, -6.1795807, -6.1795807, -6.1795807, -6.1795807, -6.1795807, -6.1795807, -6.1795807];[0.0, 0.0, 0.0, -0.1700802, -0.87874776, -1.2472548, -1.5874153, -1.8708823, -2.0976558, -2.5228565, -2.7212832, -2.8063235, -2.83467, -2.8630168, -2.8630168, -2.8630168, -2.8630168, -2.8630168, -2.83467, -2.83467, -2.83467, -2.83467, -2.83467, -2.83467, -2.83467, -2.83467, -2.83467, -2.83467, -2.83467, -2.83467, -2.83467, -2.83467, -2.83467, -2.83467, -2.83467, -2.83467, -2.83467, -2.83467, -2.83467, -2.83467, -2.83467, -2.83467, -2.83467, -2.83467, -2.83467, -2.83467, -2.83467, -2.83467, -2.83467, -2.83467, -2.83467, -2.83467, -2.83467, -2.83467, -2.83467, -2.83467, -2.83467, -2.83467, -2.83467, -2.83467, -2.83467, -2.83467, -2.83467, -2.83467, -2.83467, -2.83467, -2.83467, -2.83467, -2.83467, -2.83467, -2.83467, -2.83467, -2.83467];[0.004065599991008639, 0.019195300061255693, 0.0353990001603961, 0.053401000099256635, 0.06924320012331009, 0.08717960002832115, 0.10340000013820827, 0.11967550008557737, 0.13526350003667176, 0.15334820002317429, 0.16829390008933842, 0.187455500010401, 0.20157120004296303, 0.22211230010725558, 0.23480780003592372, 0.25316750002093613, 0.26927129994146526, 0.2873496999964118, 0.302909400081262, 0.3201647000387311, 0.33477360010147095, 0.3532084000762552, 0.36826859996654093, 0.38532810006290674, 0.40149570000357926, 0.41959900013171136, 0.43523319996893406, 0.45290230005048215, 0.4700782001018524, 0.4868232000153512, 0.5019255001097918, 0.5197030999697745, 0.5340786001179367, 0.5548451000358909, 0.5687963000964373, 0.5857137001585215, 0.6018358001019806, 0.6207342001143843, 0.6355795999988914, 0.6544030001387, 0.6694837999530137, 0.6854683000128716, 0.7015700000338256, 0.7188122000079602, 0.7353477999567986, 0.754209800157696, 0.7693400999996811, 0.785872400039807, 0.8009266001172364, 0.8182074001524597, 0.8350166000891477, 0.8524659001268446, 0.8684706999920309, 0.8869523999746889, 0.9008816001005471, 0.9189741001464427, 0.9352943999692798, 0.9528091000393033, 0.9682140999939293, 0.9856140001211315, 1.001397600164637, 1.0200056000612676, 1.0347194001078606, 1.0525754999835044, 1.0688349001575261, 1.0861756999511272, 1.1012987999711186, 1.1189514000434428, 1.136384000070393, 1.1541357000824064, 1.1687896000221372, 1.1873616001103073, 1.2017161000985652]
S13;5;0;0;1;False;3000;True;;8;-52.78978016721766;drag;L;4.932326;-5.811074;-49.68;7.62;1.881687599932775;1.881794200045988;1686135286.0255105;1686135286.0380373;1686135286.7925038;1686135287.2912855;1686135290.2922823;1686135292.1743045;[0.0, 0.0, 0.0, 0.0, 0.0, 0.0, 0.0, 0.0, 0.0, 0.0, 0.0, 0.0, 0.0, 0.0, 0.0, 0.0, 0.0, 0.0, 0.0, 0.0, 0.0, 0.0, 0.0, 0.0, 0.0, 0.0, 0.0, 0.0, 0.0, 0.0, 0.0, 0.0, 0.0, 0.0, 0.0, 0.0, 0.2267736, 0.5102406, 0.76536095, 1.1055214, 2.3527763, 3.911845, 4.6772056, 4.875633, 4.932326, 4.932326, 4.960673, 4.960673, 4.9890194, 4.9890194, 4.9890194, 4.9890194, 4.9890194, 4.9890194, 4.9890194, 4.9890194, 4.9890194, 4.9890194, 4.960673, 4.960673, 4.960673, 4.960673, 4.960673, 4.960673, 4.960673, 4.960673, 4.960673, 4.960673, 4.960673, 4.960673, 4.960673, 4.960673, 4.960673, 4.960673, 4.960673, 4.960673, 4.960673, 4.960673, 4.960673, 4.960673, 4.960673, 4.960673, 4.960673, 4.960673, 4.960673, 4.960673, 4.960673, 4.960673, 4.932326, 4.932326, 4.932326, 4.932326, 4.932326, 4.932326, 4.932326, 4.932326, 4.932326, 4.932326, 4.932326, 4.932326, 4.932326, 4.932326, 4.932326, 4.932326, 4.932326, 4.932326, 4.932326, 4.932326, 4.932326, 4.932326, 4.932326, 4.932326, 4.932326];[0.0, 0.0, 0.0, 0.0, 0.0, 0.0, 0.0, 0.0, 0.0, 0.0, 0.0, 0.0, 0.0, 0.0, 0.0, 0.0, 0.0, 0.0, 0.0, 0.0, 0.0, 0.0, 0.0, 0.0, 0.0, 0.0, 0.0, 0.0, 0.0, 0.0, 0.0, 0.0, 0.0, 0.0, 0.0, 0.0, -0.28346702, -0.6236274, -0.93544114, -1.3889884, -2.9197102, -4.733899, -5.4992604, -5.697687, -5.697687, -5.7260337, -5.7260337, -5.7260337, -5.7260337, -5.7260337, -5.75438, -5.75438, -5.75438, -5.75438, -5.75438, -5.75438, -5.75438, -5.7260337, -5.7260337, -5.7260337, -5.7260337, -5.7260337, -5.7260337, -5.7260337, -5.7260337, -5.7260337, -5.7260337, -5.7260337, -5.7260337, -5.7260337, -5.7260337, -5.7260337, -5.7260337, -5.7260337, -5.7260337, -5.7260337, -5.7260337, -5.7260337, -5.7260337, -5.7260337, -5.7260337, -5.7260337, -5.7260337, -5.7260337, -5.7260337, -5.7260337, -5.7260337, -5.75438, -5.782727, -5.782727, -5.811074, -5.811074, -5.811074, -5.811074, -5.811074, -5.811074, -5.8394203, -5.8394203, -5.8394203, -5.8394203, -5.811074, -5.811074, -5.811074, -5.811074, -5.811074, -5.811074, -5.811074, -5.811074, -5.811074, -5.811074, -5.811074, -5.811074, -5.811074];[0.004420900018885732, 0.017249400028958917, 0.034919099882245064, 0.05043569998815656, 0.06914179981686175, 0.08394319983199239, 0.10210869996808469, 0.11707999999634922, 0.13511429983191192, 0.1508918998297304, 0.1686658998951316, 0.18335029995068908, 0.20012719999067485, 0.2167211000341922, 0.23487149993889034, 0.25093229999765754, 0.2684450999367982, 0.28391859983094037, 0.3026165999472141, 0.31698370003141463, 0.33530849986709654, 0.35161829995922744, 0.368428299902007, 0.38322159997187555, 0.4029549998231232, 0.41675119986757636, 0.4353074999526143, 0.44981399993412197, 0.4671067998278886, 0.48329819994978607, 0.5006321000400931, 0.5156717000063509, 0.5351749998517334, 0.549865199951455, 0.5650426000356674, 0.5814022999256849, 0.5984439000021666, 0.6155597998294979, 0.6333891998510808, 0.6507881998550147, 0.6710530000273138, 0.6844944998156279, 0.7003790000453591, 0.7198703999165446, 0.7350738998502493, 0.7488034998532385, 0.7681046000216156, 0.782787499949336, 0.8031725999899209, 0.8154946998693049, 0.8316134999040514, 0.848778999876231, 0.8667727999854833, 0.883485599886626, 0.9013167000375688, 0.9163026998285204, 0.9346916999202222, 0.9505177999380976, 0.9684685999527574, 0.9836146000307053, 1.0012127000372857, 1.0172379999421537, 1.0353075999300927, 1.0495090999174863, 1.0679637999273837, 1.0830420998390764, 1.1012864999938756, 1.1170230000279844, 1.1350567999761552, 1.1505112999584526, 1.1690761998761445, 1.1831640000455081, 1.2019843999296427, 1.2158154998905957, 1.234354699961841, 1.2514057999942452, 1.2686379998922348, 1.2836922998540103, 1.3015831999946386, 1.3156848999205977, 1.3354032000061125, 1.3513618998695165, 1.367747499840334, 1.3839198998175561, 1.4026838999707252, 1.4167492999695241, 1.4341861000284553, 1.4503770000301301, 1.470845199888572, 1.4834270998835564, 1.5026394999586046, 1.5178105998784304, 1.5343557000160217, 1.5503068999387324, 1.5669533000327647, 1.5832632000092417, 1.601037799846381, 1.6155622999649495, 1.6344709999393672, 1.6501211000140756, 1.6676111000124365, 1.68371000001207, 1.7009286999236792, 1.7169027999043465, 1.7339763999916613, 1.7503366998862475, 1.76781089999713, 1.7843298998195678, 1.800776599906385, 1.8157289000228047, 1.8338085999712348, 1.8504837998189032, 1.8685806998983026]
S13;6;0;0;1;False;3000;True;;8;149.1346777637422;drag;L;-6.831555;4.9890194;143.86;8.46;1.399986700154841;1.4001128000672907;1686135293.0271385;1686135293.037621;1686135293.7917423;1686135294.2926779;1686135297.2915542;1686135298.6915133;[0.0, -0.39685383, -0.87874776, -1.0771747, -1.2756016, -1.5023751, -2.3244295, -3.6283777, -4.563819, -4.875633, -5.130753, -5.215793, -5.300833, -5.32918, -5.3575263, -5.3858733, -5.41422, -5.41422, -5.41422, -5.41422, -5.41422, -5.41422, -5.41422, -5.41422, -5.41422, -5.41422, -5.41422, -5.41422, -5.41422, -5.41422, -5.41422, -5.41422, -5.41422, -5.41422, -5.41422, -5.41422, -5.41422, -5.41422, -5.41422, -5.41422, -5.41422, -5.41422, -5.41422, -5.5559535, -5.66934, -5.75438, -5.8394203, -5.896114, -5.896114, -5.9528074, -5.9528074, -5.981154, -6.0095005, -6.0095005, -6.0661945, -6.2362742, -6.5197415, -6.633128, -6.7181687, -6.774862, -6.8032084, -6.8032084, -6.831555, -6.831555, -6.831555, -6.831555, -6.831555, -6.831555, -6.831555, -6.831555, -6.831555, -6.831555, -6.831555, -6.831555, -6.831555, -6.831555, -6.831555, -6.831555, -6.831555, -6.831555, -6.831555, -6.831555, -6.831555, -6.831555];[0.0, 0.1700802, 0.39685383, 0.48189393, 0.56693405, 0.7086675, 1.1905615, 2.0409625, 2.6929367, 2.9197102, 3.0897903, 3.1748307, 3.2031772, 3.2315238, 3.2598708, 3.2882173, 3.2882173, 3.2882173, 3.2882173, 3.2882173, 3.2882173, 3.2882173, 3.2882173, 3.2882173, 3.2882173, 3.2882173, 3.2882173, 3.2882173, 3.2882173, 3.2882173, 3.2882173, 3.2882173, 3.2882173, 3.2882173, 3.2882173, 3.2882173, 3.2882173, 3.2882173, 3.2882173, 3.2882173, 3.2882173, 3.2882173, 3.2882173, 3.4582977, 3.5716846, 3.6850712, 3.798458, 3.8551514, 3.8834982, 3.911845, 3.911845, 3.9401915, 3.968538, 3.996885, 4.110272, 4.337045, 4.7055526, 4.847286, 4.932326, 4.9890194, 5.017366, 5.017366, 5.045713, 5.045713, 5.045713, 5.045713, 5.045713, 5.045713, 5.017366, 5.017366, 5.017366, 5.017366, 5.017366, 4.9890194, 4.9890194, 4.9890194, 4.9890194, 4.9890194, 4.9890194, 4.9890194, 4.9890194, 4.9890194, 4.9890194, 4.9890194];[0.003116199979558587, 0.01593039999715984, 0.035961000015959144, 0.05042429990135133, 0.06717579998075962, 0.08444150001741946, 0.1009205998852849, 0.11752419988624752, 0.1353648998774588, 0.15053869993425906, 0.17175149987451732, 0.18364490009844303, 0.20065469993278384, 0.21737600001506507, 0.23551489994861186, 0.2504978000652045, 0.26880330010317266, 0.2836907000746578, 0.30116849998012185, 0.3162823000457138, 0.33388020005077124, 0.3505597000475973, 0.367973200045526, 0.3842974998988211, 0.400788800092414, 0.416723599890247, 0.43391630006954074, 0.4505338999442756, 0.4679352999664843, 0.48486620001494884, 0.5014140999410301, 0.5175034001003951, 0.5348515000659972, 0.5499913000967354, 0.5674350999761373, 0.5829290999099612, 0.601140100043267, 0.6163498000241816, 0.6336914000567049, 0.6500355000607669, 0.6673932999838144, 0.6830358998849988, 0.7019255999475718, 0.7165717999450862, 0.7346924999728799, 0.750747200101614, 0.7672423000913113, 0.7834924999624491, 0.8009522999636829, 0.8177737998776138, 0.835353400092572, 0.8505760000552982, 0.8678148000035435, 0.8831623999867588, 0.899750400101766, 0.9175207000225782, 0.9341368000023067, 0.9502377999015152, 0.968033199897036, 0.9850451000966132, 1.0012638000771403, 1.0163294998928905, 1.0337867999915034, 1.0496457999106497, 1.0667791001033038, 1.0828986000269651, 1.1020035000983626, 1.1170147000811994, 1.1339251999743283, 1.149790700059384, 1.166979999979958, 1.183542599901557, 1.2003071999642998, 1.21627529989928, 1.234598800074309, 1.2498200999107212, 1.2675316999666393, 1.2847219000104815, 1.3009067000821233, 1.317227799911052, 1.334690900053829, 1.3497589998878539, 1.3668798999860883, 1.3836437000427395]
S13;7;0;0;1;False;1000;True;;8;110.01977034563402;drag;L;-3.6000311;6.151234;120.34;7.13;2.301449199905619;2.3015070999972522;1686135299.436911;1686135299.4542215;1686135300.207401;1686135300.7077274;1686135301.6896486;1686135303.9915292;[0.0, 0.0, 0.0, 0.0, 0.0, 0.0, 0.0, 0.0, 0.0, 0.0, 0.0, 0.0, 0.0, 0.0, 0.0, 0.0, 0.0, 0.0, 0.0, 0.0, 0.0, 0.0, 0.0, 0.0, 0.0, 0.0, 0.0, 0.0, 0.0, 0.0, 0.0, 0.0, 0.0, 0.0, 0.0, 0.0, 0.0, 0.0, 0.0, 0.0, 0.0, -0.65197414, -1.0488279, -1.2472548, -1.417335, -1.5023751, -1.5874153, -1.5874153, -1.6441087, -1.6441087, -1.6724553, -1.6724553, -1.6724553, -1.6724553, -1.6724553, -1.6724553, -1.6724553, -1.6724553, -1.6724553, -1.6724553, -1.6724553, -1.6724553, -1.6724553, -1.6724553, -1.6724553, -1.6724553, -1.6724553, -1.6724553, -1.6724553, -1.6724553, -1.6724553, -1.984269, -2.211043, -2.4094696, -2.4945097, -2.5512033, -2.6078966, -2.6362433, -2.66459, -2.66459, -2.6929367, -2.6929367, -2.7212832, -2.7779768, -2.8630168, -2.9197102, -2.9764037, -3.0330973, -3.0614438, -3.0897903, -3.1181371, -3.1748307, -3.2598708, -3.3449106, -3.4582977, -3.5433376, -3.6000311, -3.6567245, -3.6850712, -3.6850712, -3.713418, -3.713418, -3.713418, -3.713418, -3.6850712, -3.6850712, -3.6567245, -3.6567245, -3.6283777, -3.6283777, -3.6283777, -3.6000311, -3.6000311, -3.6000311, -3.6000311, -3.6000311, -3.6000311, -3.6000311, -3.6000311, -3.6000311, -3.6000311, -3.6000311, -3.6000311, -3.6000311, -3.6000311, -3.6000311, -3.6000311, -3.6000311, -3.6000311, -3.6000311, -3.6000311, -3.6000311, -3.6000311, -3.6000311, -3.6000311, -3.6000311, -3.6000311, -3.6000311];[0.0, 0.0, 0.0, 0.0, 0.0, 0.0, 0.0, 0.0, 0.0, 0.0, 0.0, 0.0, 0.0, 0.0, 0.0, 0.0, 0.0, 0.0, 0.0, 0.0, 0.0, 0.0, 0.0, 0.0, 0.0, 0.0, 0.0, 0.0, 0.0, 0.0, 0.0, 0.0, 0.0, 0.0, 0.0, 0.0, 0.0, 0.0, 0.0, 0.0, 0.0, 1.2756016, 2.2393894, 3.0614438, 4.110272, 4.3937387, 4.5921655, 4.648859, 4.6772056, 4.733899, 4.733899, 4.733899, 4.762246, 4.762246, 4.762246, 4.762246, 4.762246, 4.762246, 4.762246, 4.762246, 4.762246, 4.762246, 4.762246, 4.762246, 4.762246, 4.762246, 4.762246, 4.762246, 4.762246, 4.762246, 4.762246, 4.932326, 5.1024065, 5.300833, 5.3575263, 5.4425664, 5.527607, 5.527607, 5.5559535, 5.5843005, 5.5843005, 5.612647, 5.6409936, 5.66934, 5.7260337, 5.75438, 5.782727, 5.8394203, 5.8394203, 5.8677673, 5.8677673, 5.896114, 5.924461, 5.981154, 6.0661945, 6.094541, 6.151234, 6.151234, 6.151234, 6.151234, 6.151234, 6.151234, 6.151234, 6.151234, 6.151234, 6.151234, 6.151234, 6.151234, 6.151234, 6.151234, 6.151234, 6.151234, 6.151234, 6.151234, 6.151234, 6.151234, 6.151234, 6.151234, 6.151234, 6.151234, 6.151234, 6.151234, 6.151234, 6.151234, 6.151234, 6.151234, 6.151234, 6.151234, 6.151234, 6.151234, 6.151234, 6.151234, 6.151234, 6.151234, 6.151234, 6.151234, 6.151234, 6.151234];[0.00406399997882545, 0.021173899993300438, 0.03415820002555847, 0.05260329996235669, 0.06966909999027848, 0.08747030002996325, 0.10117749986238778, 0.11890810006298125, 0.13495750003494322, 0.15367359993979335, 0.1683889999985695, 0.1854162998497486, 0.20164959994144738, 0.219897500006482, 0.23594180005602539, 0.2514499998651445, 0.267714099958539, 0.2868400998413563, 0.30292969988659024, 0.320688100066036, 0.3344190998468548, 0.352358799893409, 0.3685709999408573, 0.38696939987130463, 0.40178680000826716, 0.4187996999826282, 0.43427470000460744, 0.45282899984158576, 0.46897169994190335, 0.4852082999423146, 0.5016475999727845, 0.5207473998889327, 0.5360971000045538, 0.5527776998933405, 0.5684231999330223, 0.586064700037241, 0.6027412000112236, 0.618945199996233, 0.6343389998655766, 0.6517074999865144, 0.6692259998526424, 0.6852770000696182, 0.7021089000627398, 0.7198516998905689, 0.7352892998605967, 0.751979700056836, 0.7698204999323934, 0.7866891999728978, 0.8026717999018729, 0.8172758999280632, 0.8345651000272483, 0.8521131998859346, 0.8680207999423146, 0.8850078999530524, 0.9015428000129759, 0.9203649999108166, 0.9353020000271499, 0.9514111999887973, 0.9677530999761075, 0.9856076999567449, 1.0010007999371737, 1.0186129999347031, 1.0359173999167979, 1.0519834998995066, 1.0674453000538051, 1.0855443000327796, 1.1021962999366224, 1.117838399950415, 1.1349084000103176, 1.1518416998442262, 1.1688142998609692, 1.185382700059563, 1.2010212000459433, 1.2175691998563707, 1.2353590000420809, 1.2525078998878598, 1.2680983999744058, 1.285904899938032, 1.3009550999850035, 1.3186339000239968, 1.3351014000363648, 1.3521473999135196, 1.3685093000531197, 1.3846568998415023, 1.4019869999028742, 1.4181625999044627, 1.4342687998432666, 1.4513966999948025, 1.4668566999025643, 1.4847726998850703, 1.5020929998718202, 1.519108299864456, 1.535438499879092, 1.5525273999664932, 1.5675011998973787, 1.5863089000340551, 1.601306099910289, 1.6188610000535846, 1.6357994000427425, 1.6530952998436987, 1.6696182999294251, 1.6854389000218362, 1.6999381000641733, 1.7173752998933196, 1.7335338999982923, 1.750798000022769, 1.7677517000120133, 1.7838780998717993, 1.8003419998567551, 1.8174268000293523, 1.8335065999999642, 1.8510879999957979, 1.8686253000050783, 1.8849233000073582, 1.901924799894914, 1.9190016000065953, 1.9350499999709427, 1.953371899900958, 1.9676979999057949, 1.9844022998586297, 2.0000853000674397, 2.01676859986037, 2.0336507000029087, 2.05085949995555, 2.066787000047043, 2.0842154999263585, 2.1003270000219345, 2.117465900024399, 2.13338669994846, 2.1519809998571873, 2.169326900038868, 2.1882815998978913, 2.202478599967435, 2.2198705000337213, 2.23588649998419, 2.2525169998407364, 2.269203200004995, 2.287676699925214]
S13;8;0;0;1;False;1000;True;;8;-76.23744498522318;drag;L;2.4378164;-6.8599014;-70.44;7.28;1.9001902998425066;1.900269899982959;1686135304.746561;1686135304.752383;1686135305.5059009;1686135306.0073228;1686135306.9889805;1686135308.8885283;[0.0, 0.0, 0.0, 0.0, 0.0, 0.0, 0.0, 0.0, 0.0, 0.0, 0.0, 0.0, 0.0, 0.0, 0.0, 0.0, 0.0, 0.0, 0.0, 0.0, 0.0, 0.0, 0.0, 0.0, 0.0, 0.0, 0.0, 0.0, 0.0, 0.0, 0.0, 0.0, 0.0, 0.0, 0.0, 0.0, 0.0, 0.0, 0.0, 0.0, 0.0, 0.0, 0.0, 0.0283467, 0.1133868, 0.1700802, 0.28346702, 0.3401604, 0.39685383, 0.53858733, 0.65197414, 0.87874776, 0.96378785, 1.0488279, 1.1055214, 1.1338681, 1.1622148, 1.1622148, 1.1905615, 1.1905615, 1.2189082, 1.3039483, 1.3889884, 1.4740285, 1.5307219, 1.5874153, 1.6157619, 1.6441087, 1.6724553, 1.7008021, 1.8141888, 1.984269, 2.3527763, 2.466163, 2.5512033, 2.6362433, 2.6362433, 2.66459, 2.66459, 2.66459, 2.66459, 2.66459, 2.66459, 2.66459, 2.66459, 2.6362433, 2.6078966, 2.6078966, 2.57955, 2.5512033, 2.5228565, 2.5228565, 2.4945097, 2.4945097, 2.466163, 2.4378164, 2.4378164, 2.4378164, 2.4378164, 2.4378164, 2.4378164, 2.4378164, 2.4378164, 2.4378164, 2.4378164, 2.4378164, 2.4378164, 2.4378164, 2.4378164, 2.4378164, 2.4378164, 2.4378164, 2.4378164, 2.4378164];[0.0, 0.0, 0.0, 0.0, 0.0, 0.0, 0.0, 0.0, 0.0, 0.0, 0.0, 0.0, 0.0, 0.0, 0.0, 0.0, 0.0, 0.0, 0.0, 0.0, 0.0, 0.0, 0.0, 0.0, 0.0, 0.0, 0.0, 0.0, 0.0, 0.0, 0.0, 0.0, 0.0, 0.0, 0.0, 0.0, 0.0, 0.0, 0.0, 0.0, 0.0, 0.0, -0.59528077, -1.7858423, -2.2960827, -2.6078966, -2.9197102, -3.0897903, -3.2598708, -3.6283777, -3.911845, -4.5071254, -4.847286, -5.0740595, -5.2441397, -5.32918, -5.41422, -5.4425664, -5.4709134, -5.527607, -5.5559535, -5.66934, -5.811074, -6.0095005, -6.094541, -6.2079277, -6.264621, -6.292968, -6.321315, -6.3496614, -6.4630475, -6.633128, -6.944942, -7.029982, -7.086675, -7.143369, -7.1717157, -7.1717157, -7.1717157, -7.1717157, -7.1717157, -7.1717157, -7.1717157, -7.1717157, -7.1150217, -7.1150217, -7.0583286, -7.029982, -7.029982, -7.0016356, -6.9732885, -6.9732885, -6.944942, -6.944942, -6.9165955, -6.888248, -6.888248, -6.8599014, -6.8599014, -6.8599014, -6.8599014, -6.8599014, -6.8599014, -6.8599014, -6.8599014, -6.8599014, -6.8599014, -6.8599014, -6.8599014, -6.8599014, -6.8599014, -6.8599014, -6.8599014, -6.8599014];[0.004252699902281165, 0.019307599868625402, 0.03526439983397722, 0.05210480000823736, 0.06800779979676008, 0.08519429992884398, 0.10172779997810721, 0.11892609996721148, 0.1349485998507589, 0.15248499996960163, 0.168501699808985, 0.18596049980260432, 0.20109059987589717, 0.21884899982251227, 0.23442889982834458, 0.25175379985012114, 0.26773879979737103, 0.2857383999507874, 0.3019672997761518, 0.31888539995998144, 0.33487409981898963, 0.35299719986505806, 0.3691552998498082, 0.3861669998150319, 0.4025579998269677, 0.4189331999514252, 0.4351421999745071, 0.45201689982786775, 0.46801359998062253, 0.4860256998799741, 0.5010442999191582, 0.5183838999364525, 0.5348079998511821, 0.5519215997774154, 0.5680373997893184, 0.5846349999774247, 0.6016310998238623, 0.6191686999518424, 0.6356838999781758, 0.6522229998372495, 0.668261099839583, 0.6857016999274492, 0.7028707999270409, 0.7191329000052065, 0.7348176999948919, 0.7531877998262644, 0.7681678999215364, 0.7863331998232752, 0.8011870998889208, 0.8196815999690443, 0.8359781999606639, 0.8529484998434782, 0.868945499882102, 0.8869232998695225, 0.9019302998203784, 0.9189750999212265, 0.9349678999278694, 0.9520257997792214, 0.9689462999813259, 0.9863042999058962, 1.0033413998316973, 1.0230468998197466, 1.0345871997997165, 1.0543781998567283, 1.0702198999933898, 1.0876135998405516, 1.1021476997993886, 1.1199876999016851, 1.1362588999327272, 1.1542751998640597, 1.1696683999616653, 1.1874849998857826, 1.2047385999467224, 1.2201653998345137, 1.2361042997799814, 1.2538647998590022, 1.268932299921289, 1.2880116999149323, 1.3019380997866392, 1.3198108999058604, 1.3356185997836292, 1.3524550998117775, 1.369220299879089, 1.3864539999049157, 1.4043138998094946, 1.4206964999902993, 1.436797099886462, 1.453444299986586, 1.4682666999287903, 1.4862164999358356, 1.5017804999370128, 1.5193940999452025, 1.5347911999560893, 1.5512378998100758, 1.5680444999597967, 1.5867341998964548, 1.6022118998225778, 1.618749399902299, 1.6355841998010874, 1.6519052998628467, 1.6681120998691767, 1.6849410999566317, 1.7012675998266786, 1.7182706999592483, 1.7344171998556703, 1.7523615998215973, 1.7684266997966915, 1.7879472998902202, 1.8024716000072658, 1.8195960999000818, 1.8365460999775678, 1.853568899910897, 1.8694032998755574, 1.886291699949652]
S13;9;0;0;1;False;3000;True;;8;71.14829927603553;drag;L;4.025232;7.313449;61.17;8.35;1.7324614999815822;1.7325333999469876;1686135309.6829782;1686135309.7036855;1686135310.4555259;1686135310.958419;1686135313.9566574;1686135315.68978;[0.0, 0.0, 0.0, 0.0, 0.0, 0.0, 0.0, 0.0, 0.0, 0.0, 0.0, 0.0, 0.0, 0.0, 0.0, 0.0, 0.0, 0.0, 0.0, 0.0, 0.0, 0.0, 0.0, 0.0, 0.0, 0.0, 0.0, 0.0, 1.1622148, 1.984269, 2.7496302, 3.2598708, 3.5433376, 3.5433376, 3.5433376, 3.5433376, 3.5433376, 3.5716846, 3.6000311, 3.6850712, 3.713418, 3.7417645, 3.798458, 3.8268046, 3.8268046, 3.8551514, 3.8551514, 3.8834982, 3.8834982, 3.911845, 3.911845, 3.9401915, 3.9401915, 3.968538, 3.996885, 3.996885, 3.996885, 3.996885, 3.996885, 3.996885, 3.996885, 3.996885, 3.996885, 3.9401915, 3.911845, 3.8834982, 3.8551514, 3.8268046, 3.8268046, 3.8268046, 3.8268046, 3.8268046, 3.8268046, 3.8268046, 3.8268046, 3.8268046, 3.8551514, 3.8551514, 3.8834982, 3.8834982, 3.911845, 3.911845, 3.9401915, 3.968538, 3.968538, 3.996885, 3.996885, 4.025232, 4.025232, 4.025232, 4.025232, 4.025232, 4.025232, 4.025232, 4.025232, 4.025232, 4.025232, 4.025232, 4.025232, 4.025232, 4.025232, 4.025232, 4.025232, 4.025232];[0.0, 0.0, 0.0, 0.0, 0.0, 0.0, 0.0, 0.0, 0.0, 0.0, 0.0, 0.0, 0.0, 0.0, 0.0, 0.0, 0.0, 0.0, 0.0, 0.0, 0.0, 0.0, 0.0, 0.0, 0.0, 0.0, 0.0, 0.0, 2.7496302, 4.932326, 6.831555, 8.192197, 8.985904, 9.042598, 9.070945, 9.070945, 9.070945, 9.099292, 9.127638, 9.184331, 9.184331, 9.212678, 9.212678, 9.212678, 9.212678, 9.212678, 9.212678, 9.212678, 9.184331, 9.155985, 9.042598, 9.014251, 8.900865, 8.815824, 8.702437, 8.50401, 8.390623, 8.305584, 8.192197, 8.135503, 8.07881, 8.022117, 7.99377, 7.880383, 7.7669964, 7.710303, 7.6252627, 7.5685697, 7.5118756, 7.4551826, 7.426836, 7.3701425, 7.341796, 7.341796, 7.341796, 7.341796, 7.313449, 7.313449, 7.313449, 7.313449, 7.313449, 7.313449, 7.313449, 7.313449, 7.313449, 7.313449, 7.313449, 7.313449, 7.313449, 7.313449, 7.313449, 7.313449, 7.313449, 7.313449, 7.313449, 7.313449, 7.313449, 7.313449, 7.313449, 7.313449, 7.313449, 7.313449, 7.313449, 7.313449];[0.0036533998791128397, 0.017493699910119176, 0.03510939981788397, 0.049736399902030826, 0.06810009991750121, 0.08409319981001318, 0.10195699986070395, 0.11691379989497364, 0.13576949993148446, 0.1507404998410493, 0.16896949987858534, 0.18438889994286, 0.2031672999728471, 0.2173345999326557, 0.23403639998286963, 0.2505681999027729, 0.2687230999581516, 0.28397589991800487, 0.303104099817574, 0.31726229982450604, 0.33503609988838434, 0.35274549992755055, 0.3693045999389142, 0.38319949992001057, 0.4008661999832839, 0.41708739986643195, 0.4344346998259425, 0.45132019999437034, 0.4707625999581069, 0.48319890000857413, 0.5004991998430341, 0.5172003000043333, 0.5332183998543769, 0.5495896998327225, 0.5676721998024732, 0.5846357999835163, 0.6005969999823719, 0.6172108999453485, 0.635542499832809, 0.6519516999833286, 0.6679328000172973, 0.6851987999398261, 0.7028154998552054, 0.7180415999609977, 0.7352523999288678, 0.7522677998058498, 0.7694849998224527, 0.7877241999376565, 0.8022236998658627, 0.818258099956438, 0.836214599898085, 0.8513846998102963, 0.8703712997958064, 0.8838041999842972, 0.9029577998444438, 0.9185149997938424, 0.9368005997966975, 0.9515056000091136, 0.9693473998922855, 0.9851132999174297, 1.004161600023508, 1.0199016998521984, 1.0352731999009848, 1.0532385997939855, 1.068169399863109, 1.0843489000108093, 1.101914499886334, 1.1174407999496907, 1.1372366999275982, 1.1511343999300152, 1.1678818999789655, 1.1857963998336345, 1.2034390999469906, 1.2172739999368787, 1.2354615000076592, 1.2510584997944534, 1.2708217999897897, 1.2836688999086618, 1.3025646999012679, 1.3175599998794496, 1.3370350999757648, 1.3509050998836756, 1.3699023998342454, 1.3852675999514759, 1.4012739998288453, 1.4186565999407321, 1.434374599950388, 1.4540375999640673, 1.4680861998349428, 1.4837579999584705, 1.502113799797371, 1.5179076998028904, 1.5364427999593318, 1.550715999910608, 1.5697033999022096, 1.5843608998693526, 1.6029011998325586, 1.6177387998905033, 1.6360519998706877, 1.6516525999177247, 1.6682595999445766, 1.6839313998352736, 1.700979599962011, 1.7172115999273956]
S13;10;0;0;1;False;1000;True;;8;-71.36549435900919;drag;L;5.527607;-7.7669964;-54.56;9.53;2.500876900041476;2.500960399862379;1686135316.3972077;1686135316.402337;1686135317.1573806;1686135317.6581748;1686135318.6392772;1686135321.1408942;[0.0, 0.0, 0.0, 0.0, 0.0, 0.0, 0.0, 0.0, 0.0, 0.0, 0.0, 0.0, 0.0, 0.0, 0.0, 0.0, 0.0, 0.0, 0.0, 0.0, 0.0, 0.0, 0.0, 0.0, 0.0, 0.0, 0.0, 0.0, 0.0, 0.0, 0.0, 0.0, 0.0, 0.0, 0.0, 0.0, 0.0, 0.0, 0.0, 0.0, 0.2551203, 1.5874153, 2.5512033, 3.2315238, 3.8834982, 4.166965, 4.3086987, 4.422086, 4.478779, 4.5071254, 4.5354724, 4.5354724, 4.5921655, 4.5921655, 4.5921655, 4.5921655, 4.5921655, 4.5921655, 4.5921655, 4.5921655, 4.563819, 4.563819, 4.563819, 4.5354724, 4.5354724, 4.5354724, 4.5921655, 4.620512, 4.620512, 4.620512, 4.620512, 4.620512, 4.620512, 4.620512, 4.620512, 4.620512, 4.620512, 4.620512, 4.620512, 4.620512, 4.620512, 4.620512, 4.620512, 4.620512, 4.620512, 4.620512, 4.620512, 4.620512, 4.620512, 4.620512, 4.620512, 4.620512, 4.6772056, 4.762246, 4.847286, 4.9039793, 4.932326, 4.932326, 4.960673, 4.960673, 4.960673, 4.960673, 4.960673, 4.960673, 4.960673, 4.960673, 4.960673, 4.960673, 4.960673, 4.9890194, 4.9890194, 5.017366, 5.045713, 5.045713, 5.0740595, 5.0740595, 5.130753, 5.1591, 5.1874466, 5.2441397, 5.2724867, 5.3575263, 5.3858733, 5.41422, 5.4425664, 5.4709134, 5.4992604, 5.4992604, 5.4992604, 5.527607, 5.5559535, 5.5559535, 5.5559535, 5.5843005, 5.5843005, 5.5843005, 5.5843005, 5.527607, 5.527607, 5.527607, 5.527607, 5.527607, 5.527607, 5.527607, 5.527607, 5.527607, 5.527607, 5.527607, 5.527607];[0.0, 0.0, 0.0, 0.0, 0.0, 0.0, 0.0, 0.0, 0.0, 0.0, 0.0, 0.0, 0.0, 0.0, 0.0, 0.0, 0.0, 0.0, 0.0, 0.0, 0.0, 0.0, 0.0, 0.0, 0.0, 0.0, 0.0, 0.0, 0.0, 0.0, 0.0, 0.0, 0.0, 0.0, 0.0, 0.0, 0.0, 0.0, 0.0, 0.0, -0.19842692, -1.5307219, -2.5512033, -3.2598708, -3.911845, -4.2236586, -4.3937387, -4.648859, -4.7905927, -4.9039793, -4.960673, -5.017366, -5.045713, -5.0740595, -5.0740595, -5.1024065, -5.130753, -5.130753, -5.130753, -5.1591, -5.215793, -5.2724867, -5.32918, -5.4709134, -5.811074, -6.2079277, -6.6614747, -6.8032084, -6.888248, -6.944942, -6.9732885, -6.9732885, -6.9732885, -6.9732885, -6.9732885, -6.9732885, -6.9732885, -6.9732885, -6.9732885, -6.9732885, -6.9732885, -6.9732885, -6.9732885, -6.9732885, -6.9732885, -6.9732885, -6.9732885, -6.9732885, -6.9732885, -6.9732885, -6.9732885, -7.0016356, -7.285102, -7.5685697, -7.82369, -8.022117, -8.07881, -8.16385, -8.192197, -8.220544, -8.24889, -8.24889, -8.24889, -8.24889, -8.24889, -8.24889, -8.277237, -8.277237, -8.277237, -8.277237, -8.277237, -8.277237, -8.277237, -8.277237, -8.277237, -8.277237, -8.277237, -8.24889, -8.24889, -8.192197, -8.16385, -8.107157, -8.07881, -8.022117, -7.99377, -7.9654226, -7.9087296, -7.9087296, -7.880383, -7.8520365, -7.8520365, -7.82369, -7.795343, -7.795343, -7.795343, -7.795343, -7.7669964, -7.7669964, -7.7669964, -7.7669964, -7.7669964, -7.7669964, -7.7669964, -7.7669964, -7.7669964, -7.7669964, -7.7669964, -7.7669964, -7.7669964];[0.004734199959784746, 0.01951379980891943, 0.03474439983256161, 0.05257509998045862, 0.06857459992170334, 0.08677279995754361, 0.10251809982582927, 0.12036119983531535, 0.13479279982857406, 0.15327119990251958, 0.16811680002138019, 0.18652440002188087, 0.2015823998954147, 0.21884220000356436, 0.23478799988515675, 0.2531251998152584, 0.26791849988512695, 0.2868357999250293, 0.30301489983685315, 0.31943019991740584, 0.33407949982210994, 0.353170600021258, 0.36789789982140064, 0.3868688000366092, 0.40271559986285865, 0.42062089988030493, 0.4355806999374181, 0.4526972998864949, 0.4683887998107821, 0.4870336998719722, 0.5022868998348713, 0.519815499894321, 0.5347672998905182, 0.5525743998587132, 0.5677306998986751, 0.5852897998411208, 0.601302299881354, 0.6182225998491049, 0.6348968998063356, 0.6523412999231368, 0.6692917998880148, 0.6875294998753816, 0.7006188000086695, 0.7183878999203444, 0.7378022999037057, 0.7528510999400169, 0.7686483999714255, 0.7865467998199165, 0.8020164999179542, 0.8212386998347938, 0.8348192998673767, 0.8536028999369591, 0.8703658999875188, 0.886502199806273, 0.9010878999251872, 0.9197229999117553, 0.9358416998293251, 0.9532237998209894, 0.9684029000345618, 0.9902069999370724, 1.019423799822107, 1.0360277998261154, 1.0530296999495476, 1.068627499975264, 1.0871168000157923, 1.1023563998751342, 1.12224439997226, 1.13531419984065, 1.1517536998726428, 1.1705745998769999, 1.1854862000327557, 1.2022639999631792, 1.2185173998586833, 1.235181099968031, 1.2513714998494834, 1.2694908999837935, 1.2866277999710292, 1.3024705999996513, 1.3196143999230117, 1.3359532998874784, 1.3510982999578118, 1.3679363999981433, 1.38549799984321, 1.402666199952364, 1.4193653999827802, 1.4364465000107884, 1.452577600022778, 1.468883599853143, 1.4856208998244256, 1.5021752999164164, 1.5190806998871267, 1.5372417999897152, 1.5511659998446703, 1.570163100026548, 1.5834234999492764, 1.601178899873048, 1.6178682998288423, 1.634479699889198, 1.651613499969244, 1.6691227999981493, 1.68498279992491, 1.702397899935022, 1.7184435999952257, 1.735894699813798, 1.7508620999287814, 1.7686931998468935, 1.7846641999203712, 1.8012816000264138, 1.817456299904734, 1.8351720999926329, 1.8505135998129845, 1.868945499882102, 1.8854338999371976, 1.901385399978608, 1.918234899872914, 1.9353494998067617, 1.9507839998696, 1.9684049999341369, 1.9858562999870628, 2.001513799885288, 2.018903699936345, 2.0351525000296533, 2.0517974998801947, 2.068715399829671, 2.0845532999373972, 2.10134829999879, 2.119065999984741, 2.1346501000225544, 2.1514810000080615, 2.16964039998129, 2.185103900032118, 2.2043166998773813, 2.219233499839902, 2.236191499978304, 2.2517632998060435, 2.269358600024134, 2.284438799833879, 2.302244500024244, 2.318490699864924, 2.3353724000044167, 2.351934199919924, 2.368765299906954, 2.385509899817407, 2.402258199872449, 2.4184965998865664, 2.435187099967152, 2.450525099877268, 2.4683031998574734, 2.484958800021559]
S13;11;0;0;1;False;3000;True;;8;112.37326063172146;drag;L;-3.5716846;7.2000623;116.38;8.04;1.583343799924478;1.5834421999752522;1686135321.9036906;1686135321.918766;1686135322.673257;1686135323.1743946;1686135326.1729486;1686135327.7566566;[0.0, 0.0, 0.0, 0.0, 0.0, 0.0, 0.0, 0.0, 0.0, 0.0, 0.0, 0.0, 0.0, 0.0, 0.0, 0.0, 0.0, 0.0, 0.0, 0.0, 0.0, 0.0, 0.0, 0.0, 0.0, 0.0, 0.0, 0.0, 0.0, 0.0, -1.8708823, -2.3527763, -2.6362433, -2.8913634, -2.9764037, -3.0330973, -3.1181371, -3.2031772, -3.3449106, -3.4299507, -3.4582977, -3.5716846, -3.713418, -3.911845, -4.025232, -4.1386185, -4.2803516, -4.337045, -4.365392, -4.365392, -4.365392, -4.365392, -4.365392, -4.365392, -4.365392, -4.337045, -4.3086987, -4.252005, -4.1953115, -4.166965, -4.081925, -3.996885, -3.8268046, -3.7417645, -3.6000311, -3.5433376, -3.4866443, -3.4582977, -3.4299507, -3.4299507, -3.4299507, -3.4299507, -3.4299507, -3.4299507, -3.4582977, -3.4866443, -3.514991, -3.514991, -3.5433376, -3.5433376, -3.5433376, -3.5433376, -3.5716846, -3.5716846, -3.5716846, -3.5716846, -3.5716846, -3.5716846, -3.5716846, -3.5716846, -3.5716846, -3.5716846, -3.5716846, -3.5716846, -3.5716846];[0.0, 0.0, 0.0, 0.0, 0.0, 0.0, 0.0, 0.0, 0.0, 0.0, 0.0, 0.0, 0.0, 0.0, 0.0, 0.0, 0.0, 0.0, 0.0, 0.0, 0.0, 0.0, 0.0, 0.0, 0.0, 0.0, 0.0, 0.0, 0.0, 0.0, 1.8141888, 2.381123, 2.7779768, 3.2598708, 3.4582977, 3.6283777, 4.0535784, 4.422086, 4.9039793, 5.1591, 5.3575263, 5.612647, 5.8677673, 6.2362742, 6.4630475, 6.6047816, 6.7465153, 6.8032084, 6.831555, 6.831555, 6.888248, 6.888248, 6.888248, 6.888248, 6.888248, 6.9165955, 6.9165955, 6.944942, 6.944942, 6.944942, 6.944942, 6.944942, 6.9732885, 6.9732885, 7.0016356, 7.0016356, 7.0016356, 7.0016356, 7.029982, 7.029982, 7.029982, 7.0583286, 7.086675, 7.1150217, 7.143369, 7.1717157, 7.1717157, 7.2000623, 7.2000623, 7.2000623, 7.2000623, 7.2000623, 7.2000623, 7.2000623, 7.2000623, 7.2000623, 7.2000623, 7.2000623, 7.2000623, 7.2000623, 7.2000623, 7.2000623, 7.2000623, 7.2000623, 7.2000623];[0.004041200038045645, 0.018363700015470386, 0.03560990002006292, 0.05104689998552203, 0.0686147001106292, 0.08455220004543662, 0.10243179998360574, 0.1177048000972718, 0.13451040000654757, 0.15148280002176762, 0.16814500000327826, 0.18421820015646517, 0.20055750012397766, 0.21807110006920993, 0.2352905001025647, 0.2501073000021279, 0.2676256999839097, 0.2839858001098037, 0.30164650012739, 0.3169800001196563, 0.3354702000506222, 0.3512238999828696, 0.3682991999667138, 0.3840342001058161, 0.40165660018101335, 0.41756279999390244, 0.43531280010938644, 0.45076260017231107, 0.4677346001844853, 0.4844579000491649, 0.5024981000460684, 0.5165975999552757, 0.5355664000380784, 0.5511018000543118, 0.568499700166285, 0.5850154999643564, 0.6009709001518786, 0.6174123999662697, 0.6370745999738574, 0.6503057000227273, 0.6692943000234663, 0.6857309001497924, 0.7008263999596238, 0.7188651000615209, 0.7339159999974072, 0.750945599982515, 0.7698278999887407, 0.7841340000741184, 0.8049894999712706, 0.8178348999936134, 0.8360401999671012, 0.8506406000815332, 0.8687132999766618, 0.8841460000257939, 0.9018702001776546, 0.9181544999592006, 0.9350187000818551, 0.952128800097853, 0.9674572001677006, 0.9840194000862539, 1.0022311001084745, 1.0173587000463158, 1.0364179001189768, 1.050539999967441, 1.0706837000325322, 1.084854600019753, 1.101425000000745, 1.1178262999746948, 1.1356441001407802, 1.1506797999609262, 1.1680348000954837, 1.1838177000172436, 1.2009223999921232, 1.2168546000029892, 1.2345857999753207, 1.2510577000211924, 1.2672802000306547, 1.285470400005579, 1.3019883001688868, 1.3169978000223637, 1.3343873999547213, 1.3503867001272738, 1.3682637000456452, 1.3839832001831383, 1.4024013001471758, 1.4178131001535803, 1.4343896000646055, 1.4504178001079708, 1.4671098000835627, 1.4845922000240535, 1.5023350999690592, 1.5171491999644786, 1.53529669996351, 1.550256400136277, 1.5678310999646783]
S13;12;0;0;1;False;1000;True;;8;-66.88643946742816;drag;L;3.8268046;-7.285102;-62.29;8.23;2.0159092000685632;2.0159962999168783;1686135328.4469938;1686135328.4522407;1686135329.206733;1686135329.7077851;1686135330.6893475;1686135332.7053633;[0.0, 0.0, 0.0, 0.0, 0.0, 0.0, 0.0, 0.0, 0.0, 0.0, 0.0, 0.0, 0.0, 0.0, 0.0, 0.0, 0.0, 0.0, 0.0, 0.0, 0.0, 0.0, 0.0, 0.0, 0.0, 0.0, 0.0, 0.0, 0.0, 0.0, 0.0, 0.0, 0.0, 0.0, 0.0, 0.0, 0.0, 0.0, 0.4535472, 0.96378785, 1.8141888, 2.3527763, 3.0047503, 3.1748307, 3.2598708, 3.3732576, 3.3732576, 3.4299507, 3.4299507, 3.4582977, 3.4866443, 3.4866443, 3.514991, 3.5716846, 3.5716846, 3.5716846, 3.5716846, 3.5716846, 3.5716846, 3.5716846, 3.5716846, 3.5716846, 3.5716846, 3.5716846, 3.5716846, 3.5716846, 3.5716846, 3.5716846, 3.5716846, 3.5716846, 3.5716846, 3.5716846, 3.5716846, 3.5433376, 3.5433376, 3.5433376, 3.5433376, 3.5433376, 3.5433376, 3.5433376, 3.5716846, 3.5716846, 3.5716846, 3.6283777, 3.6283777, 3.6283777, 3.6283777, 3.6283777, 3.6283777, 3.6283777, 3.6567245, 3.6850712, 3.6850712, 3.713418, 3.7417645, 3.7417645, 3.770111, 3.770111, 3.770111, 3.770111, 3.770111, 3.798458, 3.798458, 3.798458, 3.8268046, 3.8268046, 3.8268046, 3.8268046, 3.8268046, 3.8268046, 3.8268046, 3.8268046, 3.8268046, 3.8268046, 3.8268046, 3.8268046, 3.8268046, 3.8268046, 3.8268046, 3.8268046, 3.8268046];[0.0, 0.0, 0.0, 0.0, 0.0, 0.0, 0.0, 0.0, 0.0, 0.0, 0.0, 0.0, 0.0, 0.0, 0.0, 0.0, 0.0, 0.0, 0.0, 0.0, 0.0, 0.0, 0.0, 0.0, 0.0, 0.0, 0.0, 0.0, 0.0, 0.0, 0.0, 0.0, 0.0, 0.0, 0.0, 0.0, 0.0, 0.0, -0.65197414, -1.3039483, -2.466163, -3.146484, -3.7417645, -3.911845, -4.025232, -4.1386185, -4.1953115, -4.252005, -4.2803516, -4.365392, -4.563819, -4.7055526, -4.847286, -4.960673, -4.960673, -4.960673, -4.960673, -4.960673, -4.960673, -4.960673, -4.960673, -4.960673, -4.960673, -4.960673, -4.960673, -4.960673, -4.960673, -4.960673, -4.960673, -4.960673, -4.960673, -4.960673, -5.1024065, -5.32918, -5.4992604, -5.5559535, -5.612647, -5.6409936, -5.7260337, -5.782727, -5.8677673, -5.924461, -5.981154, -6.0661945, -6.1228876, -6.292968, -6.491395, -6.7465153, -6.888248, -6.944942, -6.9732885, -7.0583286, -7.086675, -7.1150217, -7.143369, -7.143369, -7.1717157, -7.1717157, -7.2000623, -7.2000623, -7.2567554, -7.2567554, -7.285102, -7.285102, -7.285102, -7.285102, -7.285102, -7.285102, -7.285102, -7.285102, -7.285102, -7.285102, -7.285102, -7.285102, -7.285102, -7.285102, -7.285102, -7.285102, -7.285102, -7.285102, -7.285102];[0.0038896999321877956, 0.01876770006492734, 0.03423130000010133, 0.05157419992610812, 0.06748540000990033, 0.08579659997485578, 0.10240609990432858, 0.1178331000264734, 0.13461480010300875, 0.15174490003846586, 0.16730939992703497, 0.1849732999689877, 0.20075830002315342, 0.21781140007078648, 0.23365269997157156, 0.2518199998885393, 0.2677287000697106, 0.28514769999310374, 0.3014128999784589, 0.3188491999171674, 0.3339482001028955, 0.35211730003356934, 0.36772199999541044, 0.3855943998787552, 0.4006352999713272, 0.4177383000496775, 0.434008999960497, 0.4516731998883188, 0.4678895999677479, 0.4853566999081522, 0.5014682998880744, 0.5180188999511302, 0.5342427999712527, 0.5521672000177205, 0.5678848000243306, 0.5853993999771774, 0.601255200104788, 0.6188256000168622, 0.6347640000749379, 0.652389399940148, 0.668400099966675, 0.6854218998923898, 0.7043163001071662, 0.7179409998934716, 0.7345841000787914, 0.7512256000190973, 0.7673702999018133, 0.7849498998839408, 0.8006412000395358, 0.8193697000388056, 0.8361110000405461, 0.8518550998996943, 0.867644099984318, 0.8845061999745667, 0.8991054000798613, 0.9161578000057489, 0.9335648000705987, 0.9520080999936908, 0.9679908999241889, 0.9860320000443608, 1.0018114999402314, 1.0188078999053687, 1.0347019999753684, 1.0529920000117272, 1.0678423999343067, 1.0851791000459343, 1.1011999000329524, 1.1182118998840451, 1.1339831000659615, 1.1511782000306994, 1.1677771999966353, 1.1855593000072986, 1.201150800101459, 1.2176822999026626, 1.2363976000342518, 1.2517985999584198, 1.2669190000742674, 1.2860075999051332, 1.3022260998841375, 1.3192187999375165, 1.334223800105974, 1.3523017999250442, 1.3678780999034643, 1.3852174000348896, 1.4007715000770986, 1.4182692999020219, 1.4343085999134928, 1.453623600071296, 1.468684900086373, 1.4853093998972327, 1.5010349999647588, 1.5187293000053614, 1.5342733999714255, 1.551555800018832, 1.5675067000556737, 1.5857567999046296, 1.6005074998829514, 1.6179903000593185, 1.6328414999879897, 1.6506143000442535, 1.6679352999199182, 1.687528399983421, 1.7006480998825282, 1.7186117998789996, 1.7332893998827785, 1.7513733999803662, 1.767251499928534, 1.784908999921754, 1.8010108000598848, 1.8188595999963582, 1.8341751999687403, 1.8518910999409854, 1.8672030998859555, 1.8848113999702036, 1.9012023999821395, 1.9180986999999732, 1.9361165000591427, 1.9521518999245018, 1.968167700106278, 1.9852026000153273, 2.0004378999583423]
S13;13;0;0;1;False;3000;True;;8;-36.5760869576007;drag;L;6.633128;-5.7260337;-40.8;8.76;2.4341946002095938;2.4342742001172155;1686135333.3943658;1686135333.4017456;1686135334.156059;1686135334.6580641;1686135337.6550696;1686135340.0892613;[0.0, 0.0, 0.0, 0.0, 0.0, 0.0, 0.0, 0.0, 0.0, 0.0, 0.0, 0.0, 0.0, 0.0, 0.0, 0.0, 0.0, 0.0, 0.0, 0.0, 0.0, 0.0, 0.0, 0.0, 0.0, 0.0, 0.0, 0.0, 0.0, 0.0, 0.0, 0.0, 0.0, 0.0, 1.7291489, 2.4945097, 3.514991, 4.3086987, 4.932326, 5.1024065, 5.1591, 5.215793, 5.2441397, 5.2441397, 5.2724867, 5.2724867, 5.2724867, 5.300833, 5.300833, 5.300833, 5.300833, 5.300833, 5.300833, 5.300833, 5.300833, 5.300833, 5.300833, 5.300833, 5.300833, 5.300833, 5.300833, 5.300833, 5.300833, 5.300833, 5.300833, 5.3575263, 5.4992604, 5.5559535, 5.6409936, 5.697687, 5.7260337, 5.811074, 5.8394203, 5.896114, 5.924461, 5.9528074, 6.0095005, 6.0661945, 6.2079277, 6.292968, 6.378008, 6.4630475, 6.5197415, 6.548088, 6.5764346, 6.5764346, 6.6047816, 6.633128, 6.633128, 6.633128, 6.633128, 6.6614747, 6.6614747, 6.6614747, 6.6614747, 6.6614747, 6.6898212, 6.6898212, 6.7181687, 6.7181687, 6.7181687, 6.7465153, 6.7465153, 6.7465153, 6.774862, 6.774862, 6.774862, 6.774862, 6.8032084, 6.831555, 6.831555, 6.831555, 6.831555, 6.831555, 6.831555, 6.831555, 6.8032084, 6.8032084, 6.8032084, 6.8032084, 6.774862, 6.7465153, 6.7181687, 6.6898212, 6.6898212, 6.6614747, 6.6614747, 6.6614747, 6.6614747, 6.6614747, 6.633128, 6.633128, 6.633128, 6.633128, 6.633128, 6.633128, 6.633128, 6.633128, 6.633128, 6.633128, 6.633128, 6.633128, 6.633128, 6.633128, 6.633128, 6.633128];[0.0, 0.0, 0.0, 0.0, 0.0, 0.0, 0.0, 0.0, 0.0, 0.0, 0.0, 0.0, 0.0, 0.0, 0.0, 0.0, 0.0, 0.0, 0.0, 0.0, 0.0, 0.0, 0.0, 0.0, 0.0, 0.0, 0.0, 0.0, 0.0, 0.0, 0.0, 0.0, 0.0, 0.0, -0.93544114, -1.1622148, -1.5307219, -1.8425356, -2.211043, -2.3527763, -2.466163, -2.6078966, -2.66459, -2.7212832, -2.7496302, -2.8063235, -2.8913634, -2.948057, -3.0047503, -3.0047503, -3.0047503, -3.0047503, -3.0047503, -3.0047503, -3.0047503, -3.0047503, -3.0047503, -3.0047503, -3.0047503, -3.0047503, -3.0047503, -3.0047503, -3.0047503, -3.0047503, -3.0047503, -3.146484, -3.6000311, -3.770111, -3.9401915, -4.0535784, -4.1386185, -4.2803516, -4.3937387, -4.5071254, -4.563819, -4.620512, -4.733899, -4.7905927, -4.875633, -4.932326, -5.017366, -5.0740595, -5.130753, -5.1591, -5.1874466, -5.2441397, -5.32918, -5.41422, -5.4709134, -5.4709134, -5.527607, -5.527607, -5.5559535, -5.5843005, -5.5843005, -5.5843005, -5.5843005, -5.5843005, -5.5843005, -5.5843005, -5.612647, -5.612647, -5.6409936, -5.6409936, -5.6409936, -5.6409936, -5.66934, -5.697687, -5.7260337, -5.7260337, -5.75438, -5.75438, -5.782727, -5.782727, -5.811074, -5.811074, -5.811074, -5.811074, -5.811074, -5.811074, -5.811074, -5.811074, -5.811074, -5.811074, -5.811074, -5.811074, -5.811074, -5.811074, -5.811074, -5.811074, -5.811074, -5.811074, -5.782727, -5.75438, -5.7260337, -5.7260337, -5.7260337, -5.7260337, -5.7260337, -5.7260337, -5.7260337, -5.7260337, -5.7260337, -5.7260337, -5.7260337, -5.7260337];[0.003815900068730116, 0.018091100035235286, 0.035842700162902474, 0.05172390001825988, 0.0691601000726223, 0.08508370001800358, 0.10383240017108619, 0.11844330001622438, 0.1361065001692623, 0.15157980006188154, 0.16953800013288856, 0.18463240005075932, 0.20259110000915825, 0.2175941001623869, 0.23552930005826056, 0.2506459001451731, 0.2676921000238508, 0.2848593001253903, 0.3028657000977546, 0.3180106000509113, 0.33678280003368855, 0.35171720013022423, 0.3688751000445336, 0.38452660012990236, 0.4029575001914054, 0.41839660005643964, 0.4369239001534879, 0.4515506001189351, 0.4693520001601428, 0.4842643002048135, 0.5018934002146125, 0.5181530001573265, 0.5366768999956548, 0.5508601001929492, 0.5693042001221329, 0.5853946001734585, 0.6015153001062572, 0.6176377001684159, 0.6364309000782669, 0.6522523001767695, 0.6710914000868797, 0.6863177001941949, 0.7028017002157867, 0.7182593999896199, 0.7368395000230521, 0.7518246001563966, 0.7697128001600504, 0.7857038001529872, 0.8031416002195328, 0.8179069000761956, 0.8359819001052529, 0.8517282002139837, 0.8680050000548363, 0.8857229000423104, 0.9023546001408249, 0.9179076000582427, 0.9346566000021994, 0.9516143000219017, 0.9692143001593649, 0.9837954000104219, 1.0018711001612246, 1.0181677001528442, 1.0346123001072556, 1.0508104001637548, 1.0688164001330733, 1.084133500000462, 1.1026483001187444, 1.1193013000302017, 1.1354396000970155, 1.1516043001320213, 1.1689912001602352, 1.1865691000130028, 1.2032667000312358, 1.2202674001455307, 1.2362695999909192, 1.2525137001648545, 1.2700628000311553, 1.2863657001871616, 1.3033100001048297, 1.3168691000901163, 1.334001800045371, 1.3506960000377148, 1.3672343001235276, 1.3841362001840025, 1.402865800075233, 1.4178091001231223, 1.4356468000914901, 1.4507371000945568, 1.4717608001083136, 1.48438430018723, 1.5020847001578659, 1.5185195000376552, 1.5348130001220852, 1.5523122001904994, 1.5684264001902193, 1.584260000148788, 1.6019798000343144, 1.6170850000344217, 1.636087500024587, 1.6517853999976069, 1.668476400198415, 1.6847046001348644, 1.7026275000534952, 1.7179147000424564, 1.7368484002072364, 1.7508728001266718, 1.7690906000789255, 1.784631400136277, 1.8030979000031948, 1.8176828001160175, 1.8370803000871092, 1.8514536002185196, 1.8700820000376552, 1.884579500183463, 1.9018270000815392, 1.919011800084263, 1.9355486000422388, 1.9508115001954138, 1.9677833002060652, 1.9832809001673013, 2.001799800200388, 2.01923740003258, 2.036074500065297, 2.0511342000681907, 2.0682116001844406, 2.0855785000603646, 2.101871400140226, 2.1178143001161516, 2.1366965000052005, 2.1519487001933157, 2.1695266000460833, 2.184881800087169, 2.2020491000730544, 2.2181016001850367, 2.237865500152111, 2.251890500076115, 2.269895700039342, 2.2849640001077205, 2.3027363000437617, 2.3186288001015782, 2.3366453000344336, 2.3521224001888186, 2.370460000121966, 2.3852511001750827, 2.404381100088358, 2.4183831000700593]
S13;14;0;0;1;False;3000;True;;8;26.48999447324639;drag;L;7.1717157;1.9275757;15.04;7.43;2.3132665001321584;2.313338099978864;1686135340.8025184;1686135340.8182132;1686135341.572262;1686135342.0733163;1686135345.072557;1686135347.3860223;[0.0, 0.0, 0.0, 0.0, 0.0, 0.0, 0.0, 0.0, 0.0, 0.0, 0.0, 0.0, 0.0, 0.0, 0.0, 0.0, 0.0, 0.0, 0.0, 0.0, 0.0, 0.0, 0.0, 0.0, 0.0, 0.0, 0.0, 0.0, 0.0, 0.0, 0.0, 0.0, 0.0, 0.0, 1.332295, 2.182696, 3.0330973, 3.5433376, 3.770111, 3.996885, 4.1386185, 4.2236586, 4.3086987, 4.365392, 4.422086, 4.620512, 4.847286, 5.2441397, 5.8394203, 6.0095005, 6.2079277, 6.3496614, 6.491395, 6.6047816, 6.6614747, 6.6898212, 6.7181687, 6.774862, 6.9165955, 7.029982, 7.1150217, 7.1717157, 7.2000623, 7.2000623, 7.228409, 7.228409, 7.228409, 7.2000623, 7.2000623, 7.1717157, 7.143369, 7.1150217, 7.0583286, 7.0583286, 7.0583286, 7.029982, 7.029982, 7.029982, 7.0016356, 6.9732885, 6.944942, 6.9165955, 6.8599014, 6.8599014, 6.831555, 6.8032084, 6.8032084, 6.8032084, 6.8032084, 6.8032084, 6.8032084, 6.8032084, 6.831555, 6.831555, 6.831555, 6.831555, 6.831555, 6.831555, 6.831555, 6.831555, 6.831555, 6.831555, 6.831555, 6.831555, 6.831555, 6.831555, 6.831555, 6.831555, 6.831555, 6.831555, 6.888248, 6.9165955, 6.944942, 6.9732885, 7.0016356, 7.029982, 7.0583286, 7.1150217, 7.1150217, 7.143369, 7.1717157, 7.1717157, 7.1717157, 7.1717157, 7.1717157, 7.1717157, 7.1717157, 7.1717157, 7.1717157, 7.1717157, 7.1717157, 7.1717157, 7.1717157, 7.1717157, 7.1717157, 7.1717157, 7.1717157, 7.1717157, 7.1717157];[0.0, 0.0, 0.0, 0.0, 0.0, 0.0, 0.0, 0.0, 0.0, 0.0, 0.0, 0.0, 0.0, 0.0, 0.0, 0.0, 0.0, 0.0, 0.0, 0.0, 0.0, 0.0, 0.0, 0.0, 0.0, 0.0, 0.0, 0.0, 0.0, 0.0, 0.0, 0.0, 0.0, 0.0, 0.0566934, 0.1133868, 0.1133868, 0.1133868, 0.1133868, 0.0850401, 0.0850401, 0.0566934, 0.0566934, 0.0566934, 0.0566934, 0.0566934, 0.0850401, 0.14173351, 0.19842692, 0.2267736, 0.2267736, 0.2267736, 0.2551203, 0.28346702, 0.28346702, 0.3118137, 0.3118137, 0.36850712, 0.53858733, 0.73701423, 0.85040104, 0.93544114, 0.96378785, 1.0204812, 1.0488279, 1.0488279, 1.1338681, 1.2756016, 1.3606416, 1.4740285, 1.6157619, 1.6441087, 1.6724553, 1.7008021, 1.7291489, 1.7574955, 1.7574955, 1.7858423, 1.7858423, 1.7858423, 1.8141888, 1.8425356, 1.899229, 1.9275757, 1.9559225, 1.984269, 1.984269, 1.984269, 1.984269, 1.984269, 1.984269, 1.984269, 1.984269, 1.984269, 1.984269, 1.984269, 1.984269, 1.984269, 1.984269, 1.984269, 1.984269, 1.984269, 1.984269, 1.984269, 1.984269, 1.984269, 1.984269, 1.984269, 1.984269, 1.984269, 1.984269, 1.984269, 1.984269, 1.984269, 1.984269, 1.984269, 1.984269, 1.9559225, 1.9559225, 1.9559225, 1.9559225, 1.9559225, 1.9559225, 1.9559225, 1.9559225, 1.9559225, 1.9275757, 1.9275757, 1.9275757, 1.9275757, 1.9275757, 1.9275757, 1.9275757, 1.9275757, 1.9275757, 1.9275757, 1.9275757, 1.9275757, 1.9275757];[0.0035728998482227325, 0.019241200061514974, 0.03423069999553263, 0.05110260006040335, 0.06869370001368225, 0.0832195000257343, 0.10180529998615384, 0.11635669996030629, 0.1345867000054568, 0.15102260001003742, 0.1679903999902308, 0.1837392000015825, 0.20069499989040196, 0.2169770000036806, 0.2348998999223113, 0.24977490003220737, 0.2673623999580741, 0.2836907000746578, 0.30154430004768074, 0.3176933000795543, 0.3346476999577135, 0.3506125998683274, 0.3688578999135643, 0.3833604999817908, 0.4008666998706758, 0.41698019998148084, 0.4345881000626832, 0.45051730005070567, 0.467814999865368, 0.48308879998512566, 0.5014522999990731, 0.5171916000545025, 0.534337299875915, 0.5514477000106126, 0.5678441000636667, 0.583893199916929, 0.602196600055322, 0.6164597999304533, 0.6344475999940187, 0.6521117000374943, 0.668644200079143, 0.6842165000271052, 0.7010299998801202, 0.7169311998877674, 0.7342475999612361, 0.7502723999787122, 0.767097600037232, 0.7832774000708014, 0.8003247999586165, 0.8162835000548512, 0.8331722998991609, 0.8493965000379831, 0.8677761000581086, 0.8841991999652237, 0.901138300076127, 0.9160154999699444, 0.9350743999239057, 0.9517522000242025, 0.9680159999988973, 0.9833698999136686, 1.001174199860543, 1.0167076999787241, 1.0341407998930663, 1.0505969999358058, 1.0672957999631763, 1.0838097999803722, 1.101388999959454, 1.1176942999009043, 1.1343549999874085, 1.1509207000490278, 1.1701646000146866, 1.1851393999531865, 1.1989726999308914, 1.2169438998680562, 1.2327286000363529, 1.2488714999053627, 1.26655020006001, 1.282131199957803, 1.3004948999732733, 1.3165539999026805, 1.3332793000154197, 1.349691699957475, 1.3669763000216335, 1.3830645000562072, 1.4020096000749618, 1.4166164000052959, 1.4337456000503153, 1.448719099862501, 1.4661805999930948, 1.483589099952951, 1.501204599859193, 1.5152485000435263, 1.5335198999382555, 1.5486951998900622, 1.5664808999281377, 1.5834172999020666, 1.600271499948576, 1.6170713000465184, 1.6344748998526484, 1.6499719999264926, 1.667149699991569, 1.6840220000594854, 1.700494899880141, 1.7158238999545574, 1.732742999913171, 1.7498083000537008, 1.7664641998708248, 1.7825545999221504, 1.800348399905488, 1.8153404998593032, 1.8337564999237657, 1.8496788998600096, 1.8657765998505056, 1.883396300021559, 1.8997821998782456, 1.9156508999876678, 1.9350749999284744, 1.9497642999049276, 1.9671819999348372, 1.9829414999112487, 1.9996696999296546, 2.016742799896747, 2.03276289999485, 2.049282999942079, 2.066572400042787, 2.0826695999130607, 2.0999278998933733, 2.115371899912134, 2.1318538000341505, 2.148140500066802, 2.165115699870512, 2.1810895998496562, 2.198716399958357, 2.2146926999557763, 2.2330789999105036, 2.2484939000569284, 2.266254900023341, 2.2811320000328124, 2.2991625000722706]
S13;15;0;0;1;False;1000;True;;8;-113.25606282461852;drag;L;-3.798458;-7.2567554;-117.63;8.19;1.732538599986583;1.7326084000524133;1686135348.1842926;1686135348.200455;1686135348.9555068;1686135349.4570322;1686135350.437511;1686135352.1698825;[0.0, 0.0, 0.0, 0.0, 0.0, 0.0, 0.0, 0.0, 0.0, 0.0, 0.0, 0.0, 0.0, 0.0, 0.0, 0.0, 0.0, 0.0, 0.0, 0.0, 0.0, 0.0, 0.0, 0.0, 0.0, 0.0, 0.0, -0.1133868, -0.3401604, -0.53858733, -0.96378785, -1.3606416, -1.7291489, -2.012616, -2.1260026, -2.2393894, -2.381123, -2.5228565, -2.7496302, -2.8630168, -2.9197102, -3.0047503, -3.0614438, -3.0897903, -3.1181371, -3.1181371, -3.146484, -3.146484, -3.146484, -3.146484, -3.146484, -3.146484, -3.146484, -3.146484, -3.146484, -3.146484, -3.146484, -3.146484, -3.146484, -3.146484, -3.146484, -3.146484, -3.1748307, -3.2031772, -3.2315238, -3.2882173, -3.316564, -3.3449106, -3.3732576, -3.3732576, -3.4299507, -3.4582977, -3.4866443, -3.514991, -3.514991, -3.6000311, -3.6283777, -3.6850712, -3.713418, -3.7417645, -3.7417645, -3.7417645, -3.7417645, -3.7417645, -3.7417645, -3.7417645, -3.7417645, -3.770111, -3.770111, -3.770111, -3.798458, -3.798458, -3.798458, -3.798458, -3.798458, -3.798458, -3.798458, -3.798458, -3.798458, -3.798458, -3.798458, -3.798458, -3.798458, -3.798458];[0.0, 0.0, 0.0, 0.0, 0.0, 0.0, 0.0, 0.0, 0.0, 0.0, 0.0, 0.0, 0.0, 0.0, 0.0, 0.0, 0.0, 0.0, 0.0, 0.0, 0.0, 0.0, 0.0, 0.0, 0.0, 0.0, 0.0, -0.0850401, -0.36850712, -0.59528077, -1.1055214, -1.6157619, -2.1543493, -2.5512033, -2.6929367, -2.8630168, -3.0330973, -3.316564, -3.7417645, -3.911845, -4.110272, -4.365392, -4.4504323, -4.648859, -4.7055526, -4.762246, -4.818939, -4.818939, -4.818939, -4.818939, -4.818939, -4.818939, -4.818939, -4.818939, -4.818939, -4.818939, -4.818939, -4.818939, -4.818939, -4.818939, -4.818939, -4.818939, -4.960673, -5.0740595, -5.1874466, -5.4425664, -5.5559535, -5.66934, -5.75438, -5.782727, -5.981154, -6.094541, -6.1795807, -6.264621, -6.3496614, -6.5197415, -6.7465153, -6.888248, -7.029982, -7.1150217, -7.1717157, -7.2000623, -7.228409, -7.228409, -7.285102, -7.285102, -7.285102, -7.285102, -7.285102, -7.285102, -7.285102, -7.285102, -7.2567554, -7.2567554, -7.2567554, -7.2567554, -7.2567554, -7.2567554, -7.2567554, -7.2567554, -7.2567554, -7.2567554, -7.2567554, -7.2567554];[0.003978600027039647, 0.0194002001080662, 0.03423679992556572, 0.05206510005518794, 0.06876259995624423, 0.08661299990490079, 0.10273450007662177, 0.11989350011572242, 0.13601760007441044, 0.15279159997589886, 0.16873140004463494, 0.18626810004934669, 0.2020642999559641, 0.21972930012270808, 0.2360040999483317, 0.25399890006519854, 0.26936600008048117, 0.2871622000820935, 0.30283519998192787, 0.32097489992156625, 0.3354648998938501, 0.35280849994160235, 0.36909980000928044, 0.3875466000754386, 0.40349410008639097, 0.41964230011217296, 0.4345978000201285, 0.45397030003368855, 0.46792569989338517, 0.4851422000210732, 0.5019970000721514, 0.519067500019446, 0.5342790000140667, 0.5516758000012487, 0.5677227999549359, 0.5861633999738842, 0.6014757000375539, 0.6183593000750989, 0.6347900000400841, 0.6525393000338227, 0.6695671000052243, 0.6854729999322444, 0.7019017001148313, 0.7185092999134213, 0.7338908999226987, 0.7519551999866962, 0.7678290999028832, 0.7855827000457793, 0.8023481001146138, 0.8191682000178844, 0.8354603999760002, 0.8529010000638664, 0.8687499999068677, 0.8862246999051422, 0.9022554000839591, 0.9200730000156909, 0.9352649999782443, 0.9518571998924017, 0.9682120999787003, 0.9857157999649644, 1.0011060999240726, 1.0190910999663174, 1.0348753998987377, 1.0533439998980612, 1.068069800036028, 1.085682800039649, 1.101649699965492, 1.1193723001051694, 1.134788400027901, 1.1533131999894977, 1.167448499938473, 1.1851470000110567, 1.201680100057274, 1.220717600081116, 1.2344937999732792, 1.2531330999918282, 1.268140000058338, 1.286504999967292, 1.3018809000495821, 1.3199128000997007, 1.337082700105384, 1.3514175000600517, 1.3682526999618858, 1.3847533001098782, 1.402849500067532, 1.4195658001117408, 1.4346610999200493, 1.4527378000784665, 1.467873000074178, 1.4853837999980897, 1.5015708999708295, 1.518978500040248, 1.5337457000277936, 1.5534105999395251, 1.5677753000054508, 1.5855684999842197, 1.60151829989627, 1.6184865001123399, 1.635020999936387, 1.6518725000787526, 1.6676511999685317, 1.685239200014621, 1.7015957001131028, 1.718792299972847]
S13;16;0;0;1;False;1000;True;;8;23.768111979701533;drag;L;6.831555;2.4945097;20.06;7.27;2.332502899924293;2.332571299979463;1686135352.9378312;1686135352.9512582;1686135353.7056797;1686135354.2057898;1686135355.1874676;1686135357.5204113;[0.0, 0.0, 0.0, 0.0, 0.0, 0.0, 0.0, 0.0, 0.0, 0.0, 0.0, 0.0, 0.0, 0.0, 0.0, 0.0, 0.0, 0.0, 0.0, 0.0, 0.0, 0.0, 0.0, 0.0, 0.0, 0.0, 0.0, 0.0, 0.0, 0.0, 0.0, 0.0, 0.0, 0.0, 0.0, 0.0, 1.8425356, 2.5228565, 3.3449106, 3.8268046, 4.252005, 4.5071254, 4.648859, 4.762246, 4.818939, 4.847286, 4.875633, 4.875633, 4.9039793, 4.9039793, 4.932326, 4.932326, 4.932326, 4.932326, 4.960673, 4.960673, 4.9890194, 5.017366, 5.1874466, 5.6409936, 5.8677673, 6.0095005, 6.1228876, 6.151234, 6.1795807, 6.2079277, 6.2079277, 6.2079277, 6.2079277, 6.2079277, 6.2079277, 6.2079277, 6.2079277, 6.2079277, 6.2079277, 6.2079277, 6.2079277, 6.2079277, 6.2079277, 6.2079277, 6.2079277, 6.2079277, 6.2079277, 6.2079277, 6.2079277, 6.2362742, 6.2362742, 6.264621, 6.321315, 6.4063544, 6.4630475, 6.5197415, 6.633128, 6.6898212, 6.7181687, 6.774862, 6.8032084, 6.831555, 6.831555, 6.831555, 6.831555, 6.831555, 6.831555, 6.831555, 6.831555, 6.831555, 6.831555, 6.831555, 6.831555, 6.831555, 6.831555, 6.831555, 6.831555, 6.831555, 6.831555, 6.831555, 6.831555, 6.831555, 6.831555, 6.831555, 6.831555, 6.831555, 6.831555, 6.831555, 6.831555, 6.831555, 6.831555, 6.831555, 6.831555, 6.831555, 6.831555, 6.831555, 6.831555, 6.831555, 6.831555, 6.831555, 6.831555, 6.831555, 6.831555, 6.831555];[0.0, 0.0, 0.0, 0.0, 0.0, 0.0, 0.0, 0.0, 0.0, 0.0, 0.0, 0.0, 0.0, 0.0, 0.0, 0.0, 0.0, 0.0, 0.0, 0.0, 0.0, 0.0, 0.0, 0.0, 0.0, 0.0, 0.0, 0.0, 0.0, 0.0, 0.0, 0.0, 0.0, 0.0, 0.0, 0.0, 0.36850712, 0.4535472, 0.59528077, 0.65197414, 0.6803208, 0.6803208, 0.6803208, 0.6803208, 0.6803208, 0.6803208, 0.6803208, 0.6803208, 0.6803208, 0.6803208, 0.6803208, 0.6803208, 0.6803208, 0.6803208, 0.6803208, 0.7086675, 0.7086675, 0.8220543, 1.0771747, 1.8708823, 2.211043, 2.381123, 2.4945097, 2.5512033, 2.57955, 2.6078966, 2.6078966, 2.6078966, 2.6078966, 2.6078966, 2.6078966, 2.6078966, 2.6078966, 2.6078966, 2.6078966, 2.57955, 2.57955, 2.57955, 2.57955, 2.57955, 2.57955, 2.57955, 2.5512033, 2.5228565, 2.5228565, 2.4945097, 2.4945097, 2.4945097, 2.4945097, 2.4945097, 2.4945097, 2.4945097, 2.4945097, 2.4945097, 2.4945097, 2.4945097, 2.4945097, 2.4945097, 2.4945097, 2.4945097, 2.4945097, 2.4945097, 2.4945097, 2.4945097, 2.4945097, 2.4945097, 2.4945097, 2.4945097, 2.4945097, 2.4945097, 2.4945097, 2.4945097, 2.4945097, 2.4945097, 2.4945097, 2.4945097, 2.4945097, 2.4945097, 2.4945097, 2.4945097, 2.4945097, 2.4945097, 2.4945097, 2.4945097, 2.4945097, 2.4945097, 2.4945097, 2.4945097, 2.4945097, 2.4945097, 2.4945097, 2.4945097, 2.4945097, 2.4945097, 2.4945097, 2.4945097, 2.4945097, 2.4945097, 2.4945097, 2.4945097];[0.0038922999519854784, 0.01797210006043315, 0.035206399857997894, 0.05165220005437732, 0.06774089997634292, 0.08557439991272986, 0.10176609992049634, 0.11833529989235103, 0.1350863000843674, 0.15231020003557205, 0.16864480008371174, 0.18536429991945624, 0.20145930000580847, 0.21834959997795522, 0.23614849988371134, 0.25220380001701415, 0.26753830001689494, 0.28511519986204803, 0.3009351999498904, 0.31787639996036887, 0.3343342998996377, 0.3527075999882072, 0.36782020004466176, 0.386681699892506, 0.40291210007853806, 0.41963519994169474, 0.4353436999954283, 0.4523543999530375, 0.4681504999753088, 0.4852744999807328, 0.5015068999491632, 0.5196968999225646, 0.5352163000497967, 0.5523232000414282, 0.5662620000075549, 0.5854261999484152, 0.6008820999413729, 0.6187364999204874, 0.6360442000441253, 0.6513716999907047, 0.6690080999396741, 0.684720299905166, 0.7008648999035358, 0.7215227000415325, 0.7346733999438584, 0.752709100022912, 0.7678173999302089, 0.7853620999958366, 0.801366199972108, 0.8190007999073714, 0.8338538999669254, 0.851354599930346, 0.8678490000311285, 0.8849654998630285, 0.9010184998624027, 0.9171563999261707, 0.9349048999138176, 0.9508068000432104, 0.9678551000542939, 0.9873488999437541, 1.0015084000770003, 1.0187723999843001, 1.0345264000352472, 1.0512196999043226, 1.0687665999867022, 1.0845929998904467, 1.1021310000214726, 1.1186515998560935, 1.134540099883452, 1.1515214999672025, 1.1677955000195652, 1.1846670999657363, 1.2011828999966383, 1.2180146998725832, 1.2336542999837548, 1.2511398000642657, 1.267849399941042, 1.284579599974677, 1.3014432999771088, 1.3198776000645012, 1.3350376999005675, 1.3510032000485808, 1.3674969000276178, 1.3875919999554753, 1.4014333998784423, 1.4190376000478864, 1.4345984999090433, 1.4536095999646932, 1.4680015998892486, 1.4849602000322193, 1.5009748998563737, 1.5188148999586701, 1.5346840000711381, 1.5521647999994457, 1.567219200078398, 1.5843968000262976, 1.6014461000449955, 1.6181226000189781, 1.63377399998717, 1.6506119999103248, 1.6683006000239402, 1.6844794999342412, 1.7007776000536978, 1.7185929000843316, 1.7347122998908162, 1.752216799883172, 1.767289699986577, 1.7854579000268131, 1.801422500051558, 1.8190756998956203, 1.8347159000113606, 1.8515754998661578, 1.867195799946785, 1.883729999884963, 1.900268399855122, 1.9172781999222934, 1.9346219999715686, 1.951526999939233, 1.9662583000026643, 1.9847800000570714, 2.0009159999899566, 2.0171775000635535, 2.033898999914527, 2.0518694000784308, 2.067302400013432, 2.0849907998926938, 2.1012828999664634, 2.1176618998870254, 2.135570799931884, 2.1509658000431955, 2.166782099986449, 2.1841287999413908, 2.201678300043568, 2.218841299880296, 2.2345225000754, 2.2519479000475258, 2.269671400077641, 2.2848185000475496, 2.300016999943182, 2.3188769998960197]
S13;17;0;0;1;False;3000;True;;8;-92.95093211284475;drag;L;-2.1260026;-7.6252627;-105.58;7.92;1.999145899899304;1.9992405001539737;1686135358.3396745;1686135358.3501635;1686135359.104611;1686135359.6069653;1686135362.6044817;1686135364.6039248;[0.0, 0.0, 0.0, 0.0, 0.0, 0.0, 0.0, 0.0, 0.0, 0.0, 0.0, 0.0, 0.0, 0.0, 0.0, 0.0, 0.0, 0.0, 0.0, 0.0, 0.0, 0.0, 0.0, 0.0, 0.0, 0.0, -0.0566934, -0.19842692, -0.3401604, -0.39685383, -0.48189393, -0.56693405, -0.7086675, -0.76536095, -0.93544114, -1.0488279, -1.1905615, -1.332295, -1.4740285, -1.5590686, -1.6441087, -1.6724553, -1.7574955, -1.7858423, -1.8141888, -1.8425356, -1.8425356, -1.8425356, -1.8425356, -1.8425356, -1.8425356, -1.8425356, -1.8425356, -1.8425356, -1.8425356, -1.8425356, -1.8425356, -1.8425356, -1.8425356, -1.8425356, -1.8425356, -1.8425356, -1.8425356, -1.8425356, -1.8425356, -1.8425356, -1.7858423, -1.7858423, -1.7858423, -1.7858423, -1.7858423, -1.7858423, -1.7858423, -1.7858423, -1.7858423, -1.8141888, -1.8141888, -1.8425356, -1.8425356, -1.9559225, -2.012616, -2.0409625, -2.0976558, -2.0976558, -2.1260026, -2.1260026, -2.1543493, -2.1543493, -2.1543493, -2.1543493, -2.1543493, -2.1543493, -2.1543493, -2.1543493, -2.1543493, -2.1543493, -2.1543493, -2.1543493, -2.1543493, -2.1543493, -2.1543493, -2.1260026, -2.1260026, -2.1260026, -2.1260026, -2.1260026, -2.1260026, -2.1260026, -2.1260026, -2.1260026, -2.1260026, -2.1260026, -2.1260026, -2.1260026, -2.1260026, -2.1260026, -2.1260026, -2.1260026, -2.1260026, -2.1260026];[0.0, 0.0, 0.0, 0.0, 0.0, 0.0, 0.0, 0.0, 0.0, 0.0, 0.0, 0.0, 0.0, 0.0, 0.0, 0.0, 0.0, 0.0, 0.0, 0.0, 0.0, 0.0, 0.0, 0.0, 0.0, -0.0283467, -0.14173351, -0.36850712, -0.6803208, -0.8220543, -1.0204812, -1.1905615, -1.6441087, -1.8141888, -2.2677362, -2.5512033, -3.0614438, -3.3732576, -3.713418, -4.025232, -4.166965, -4.3086987, -4.478779, -4.5921655, -4.7055526, -4.762246, -4.7905927, -4.7905927, -4.7905927, -4.7905927, -4.7905927, -4.7905927, -4.7905927, -4.7905927, -4.7905927, -4.7905927, -4.7905927, -4.7905927, -4.7905927, -4.7905927, -4.7905927, -4.7905927, -4.7905927, -4.7905927, -4.875633, -5.1024065, -5.5843005, -5.896114, -6.2362742, -6.3496614, -6.4063544, -6.491395, -6.5197415, -6.5764346, -6.6614747, -6.7181687, -6.7465153, -6.831555, -6.8599014, -7.029982, -7.143369, -7.228409, -7.2567554, -7.285102, -7.313449, -7.341796, -7.341796, -7.3701425, -7.3701425, -7.3984895, -7.3984895, -7.426836, -7.4551826, -7.483529, -7.483529, -7.540222, -7.5685697, -7.596916, -7.596916, -7.6252627, -7.6252627, -7.6252627, -7.6252627, -7.6252627, -7.6252627, -7.6252627, -7.6252627, -7.6252627, -7.6252627, -7.6252627, -7.6252627, -7.6252627, -7.6252627, -7.6252627, -7.6252627, -7.6252627, -7.6252627, -7.6252627, -7.6252627, -7.6252627];[0.004041700158268213, 0.018096200190484524, 0.03463100013323128, 0.051271900068968534, 0.06869200011715293, 0.08406570018269122, 0.1021414001006633, 0.1177676001098007, 0.13519250019453466, 0.1501283000689, 0.1675169002264738, 0.18410490010865033, 0.2004887000657618, 0.21662930003367364, 0.2353271001484245, 0.25058960006572306, 0.26817500009201467, 0.28338340017944574, 0.3012151001021266, 0.31753500015474856, 0.33499860018491745, 0.35163920000195503, 0.3691962000448257, 0.38537080003879964, 0.40266610006801784, 0.4190029001329094, 0.4351304001174867, 0.45183460018597543, 0.46960650011897087, 0.48471470014192164, 0.504472500178963, 0.5184010001830757, 0.5394993000663817, 0.5509970001876354, 0.5687936001922935, 0.5843899000901729, 0.6019854000769556, 0.6176136001013219, 0.6361385001800954, 0.6523009000811726, 0.668595900060609, 0.6844722002279013, 0.7017911002039909, 0.718598400009796, 0.7354753999970853, 0.7502956001553684, 0.7708356000948697, 0.7852541001047939, 0.8016192000359297, 0.8178584000561386, 0.8350567000452429, 0.8505816000979394, 0.868401300162077, 0.884365500183776, 0.9027500001247972, 0.9177481001242995, 0.9351832000538707, 0.9503303000237793, 0.9673388001974672, 0.9840449001640081, 1.0010185001883656, 1.0166645999997854, 1.0341752001550049, 1.0498351000715047, 1.0671477001160383, 1.0835804000962526, 1.1004671000409871, 1.1163411000743508, 1.1359252000693232, 1.150109900161624, 1.167977700009942, 1.1837868001312017, 1.2016196001786739, 1.217127300100401, 1.2343654001597315, 1.250714800087735, 1.2675274000503123, 1.2833311001304537, 1.3009422000031918, 1.317778900032863, 1.3340352000668645, 1.3507470001932234, 1.367482100147754, 1.3838363999966532, 1.4012951001059264, 1.4160705001559108, 1.434855500003323, 1.450668300036341, 1.468192300060764, 1.4836396002210677, 1.5008401002269238, 1.517384400125593, 1.533999000210315, 1.550440900027752, 1.567902100039646, 1.585122600197792, 1.6017250001896173, 1.6191080000717193, 1.6346085001714528, 1.6513553000986576, 1.6677021000068635, 1.6827665001619607, 1.7007882001344115, 1.7182513000443578, 1.7358272999990731, 1.7514282001648098, 1.768044700147584, 1.7843308001756668, 1.8020531001966447, 1.8170962000731379, 1.834652200108394, 1.8504582000896335, 1.8678637000266463, 1.8848218000493944, 1.9020889000967145, 1.9178810000885278, 1.934315900085494, 1.9501876002177596, 1.9682732000946999, 1.983822600217536]
S13;18;0;0;1;False;1000;True;;8;-61.730625352004736;drag;L;2.9764037;-7.5118756;-68.39;8.08;1.8161311000585556;1.8162179999053478;1686135365.4073546;1686135365.4167476;1686135366.1711354;1686135366.6720896;1686135367.6531794;1686135369.4699802;[0.0, 0.0, 0.0, 0.0, 0.0, 0.0, 0.0, 0.0, 0.0, 0.0, 0.0, 0.0, 0.0, 0.0, 0.0, 0.0, 0.0, 0.0, 0.0, 0.0, 0.0, 0.0, 0.0, 0.0, 0.0, 0.0, 0.0, 0.0, 0.0, 0.0, 0.2551203, 1.3039483, 1.5874153, 2.2960827, 2.57955, 2.7779768, 2.8630168, 2.8913634, 2.8913634, 2.9197102, 2.9197102, 2.9197102, 2.9197102, 2.9197102, 2.9197102, 2.9197102, 2.9197102, 2.9197102, 2.9197102, 2.9197102, 2.9197102, 2.9197102, 2.9197102, 2.9197102, 2.9197102, 2.9197102, 3.0330973, 3.146484, 3.1748307, 3.2031772, 3.2031772, 3.2031772, 3.1748307, 3.1748307, 3.146484, 3.0897903, 3.0047503, 2.948057, 2.8913634, 2.8630168, 2.8630168, 2.83467, 2.83467, 2.83467, 2.83467, 2.83467, 2.83467, 2.83467, 2.83467, 2.83467, 2.83467, 2.83467, 2.83467, 2.83467, 2.83467, 2.83467, 2.83467, 2.83467, 2.8630168, 2.8913634, 2.8913634, 2.9197102, 2.948057, 2.948057, 2.9764037, 2.9764037, 2.9764037, 2.9764037, 2.9764037, 2.9764037, 2.9764037, 2.9764037, 2.9764037, 2.9764037, 2.9764037, 2.9764037, 2.9764037, 2.9764037, 2.9764037];[0.0, 0.0, 0.0, 0.0, 0.0, 0.0, 0.0, 0.0, 0.0, 0.0, 0.0, 0.0, 0.0, 0.0, 0.0, 0.0, 0.0, 0.0, 0.0, 0.0, 0.0, 0.0, 0.0, 0.0, 0.0, 0.0, 0.0, 0.0, 0.0, 0.0, -0.42520052, -1.899229, -2.3244295, -3.1748307, -3.4866443, -3.7417645, -3.8268046, -3.911845, -3.911845, -3.9401915, -3.9401915, -3.9401915, -3.9401915, -3.9401915, -3.9401915, -3.9401915, -3.9401915, -3.9401915, -3.9401915, -3.9401915, -3.9401915, -3.9401915, -3.9401915, -3.9401915, -3.9401915, -5.2724867, -5.896114, -6.292968, -6.4063544, -6.5197415, -6.633128, -6.7465153, -6.8032084, -6.8599014, -6.944942, -7.0583286, -7.2000623, -7.313449, -7.3701425, -7.3984895, -7.426836, -7.426836, -7.4551826, -7.483529, -7.483529, -7.483529, -7.483529, -7.483529, -7.483529, -7.483529, -7.483529, -7.483529, -7.483529, -7.483529, -7.483529, -7.483529, -7.483529, -7.483529, -7.483529, -7.483529, -7.483529, -7.483529, -7.483529, -7.483529, -7.5118756, -7.5118756, -7.5118756, -7.5118756, -7.5118756, -7.5118756, -7.5118756, -7.5118756, -7.5118756, -7.5118756, -7.5118756, -7.5118756, -7.5118756, -7.5118756, -7.5118756];[0.0035955999046564102, 0.019593700068071485, 0.03567139990627766, 0.0533290000166744, 0.06856140005402267, 0.08617260004393756, 0.10153379989787936, 0.11881130002439022, 0.13595969998277724, 0.15194720006547868, 0.16897820006124675, 0.18620519991964102, 0.20089400000870228, 0.21910170000046492, 0.23540590004995465, 0.25274110003374517, 0.26929849991574883, 0.2859116999898106, 0.3023401000536978, 0.31980239995755255, 0.33459259988740087, 0.35290660010650754, 0.3679750000592321, 0.38688239990733564, 0.4008245998993516, 0.41922880010679364, 0.4370955000631511, 0.4534797000233084, 0.46836649999022484, 0.48618529993109405, 0.5016856000293046, 0.5221828001085669, 0.5350039999466389, 0.5511862998828292, 0.568187199998647, 0.5859962000977248, 0.6028227999340743, 0.6208931000437587, 0.6347439999226481, 0.6524467999115586, 0.6694312000181526, 0.6867621000856161, 0.7025888999924064, 0.7200408999342471, 0.7358180000446737, 0.7528599000070244, 0.768538000062108, 0.7863260998856276, 0.8019457999616861, 0.8194556999951601, 0.8353520000819117, 0.8534371999558061, 0.8682673999574035, 0.8857106999494135, 0.9013996000867337, 0.9187912000343204, 0.9352208999916911, 0.9517810000106692, 0.9678756999783218, 0.9853779000695795, 1.0022897000890225, 1.020720100030303, 1.0349137000739574, 1.0516492000315338, 1.0688847999554127, 1.0838500000536442, 1.100477400003001, 1.118807400111109, 1.1334341000765562, 1.1514687000308186, 1.1674013000447303, 1.18465490010567, 1.2001700000837445, 1.2173391000833362, 1.233324599917978, 1.2521532999817282, 1.2676254000980407, 1.2841509999707341, 1.3002998000010848, 1.3180523000191897, 1.3346289999317378, 1.3507350999861956, 1.3666171000804752, 1.3846509999129921, 1.4006660000886768, 1.417634200071916, 1.4334795998875052, 1.4506971999071538, 1.4685573000460863, 1.4840730000287294, 1.5017965999431908, 1.518170699942857, 1.5340547999367118, 1.5511807000730187, 1.5672806999646127, 1.5840882998891175, 1.5999670000746846, 1.6168897999450564, 1.6333731999620795, 1.651007799897343, 1.66814130009152, 1.6855158999096602, 1.7014395999722183, 1.7182291001081467, 1.733926400076598, 1.7510569000151008, 1.7679794998839498, 1.7843812999781221, 1.7996000999119133]
