subj;trial;block;prior;kappa;ct;delay;fix;keypressed;R;T_Angle;resp_mod;choice_x;choice_y;init_resp_angle;choiceAngle;choiceR;RT;MT;ts_b;ts_f;ts_p;ts_d;ts_r;ts_e;m_pos_x;m_pos_y;m_clock
S14;0;0;0;1;False;1000;True;;8;103.79961043531162;eye;L;-1.7519632875919342;8.657631170377135;101.44;8.83;2.2501087998971343;2.2502518999390304;1686139330.2189045;1686139330.2279258;1686139330.9828134;1686139331.4858077;1686139332.468526;1686139334.7192807;[-0.4037875533103943, -0.2631087303161621, -0.35295751690864563, -0.5649185478687286, -0.3971477746963501, -0.3040204346179962, -0.40045633912086487, -0.4305380582809448, -0.5576757192611694, -0.5576757192611694, -0.16076859831809998, -0.4210982024669647, -0.45094436407089233, -0.5649864971637726, -0.4956793487071991, -0.5326046943664551, -0.45941707491874695, -0.5081916451454163, -0.13541671633720398, -0.4315074682235718, -0.5973360240459442, -0.5973360240459442, -0.5240045785903931, -0.5660969018936157, -0.4066946506500244, -0.45675742626190186, -0.39428767561912537, -0.4319967031478882, -0.5622005760669708, -0.46961626410484314, -0.5079753398895264, -0.3504173457622528, -0.47794684767723083, -0.1530093550682068, -0.49265503883361816, -0.6995912194252014, -0.4912099838256836, -0.5324031114578247, -0.3938567638397217, -0.5225855708122253, -0.46307501196861267, -0.4418538808822632, -0.8098825514316559, -1.5255318880081177, -1.9715085923671722, -2.397330403327942, -2.199882209300995, -2.0830796360969543, -2.009942978620529, -2.0144338607788086, -2.2479908764362335, -2.0972929298877716, -2.018089532852173, -1.9405780732631683, -2.120279610157013, -2.302442044019699, -2.2496295869350433, -2.0778101682662964, -2.014349490404129, -1.953598290681839, -1.7813332378864288, -2.0737734138965607, -2.020384520292282, -2.040874630212784, -2.0141399800777435, -1.9688483774662018, -1.7791696190834045, -1.9351058900356293, -1.9235018491744995, -1.8926794826984406, -1.9166508615016937, -1.9301795661449432, -2.0963405072689056, -1.9301263391971588, -1.918482095003128, -1.8389213979244232, -1.9714751839637756, -1.9139464795589447, -1.8964155614376068, -1.9079578816890717, -1.9905853569507599, -1.9027478694915771, -1.8709498643875122, -1.7439696192741394, -1.8550106585025787, -1.8504314422607422, -1.7228254973888397, -1.8388319313526154, -2.0452935993671417, -1.9912631511688232, -2.03023037314415, -2.0641013979911804, -2.17430779337883, -2.0061242282390594, -2.08406263589859, -2.08406263589859, -1.9490502178668976, -2.0212242603302, -1.8474479019641876, -1.9104125499725342, -1.9635941982269287, -1.965499609708786, -1.8122354447841644, -1.6862557530403137, -1.8104495108127594, -1.918893188238144, -1.7581285536289215, -1.7581285536289215, -1.8310868442058563, -1.8001806735992432, -1.8943181931972504, -1.7419345378875732, -1.7775275111198425, -1.8446936905384064, -1.8065135478973389, -1.8812991082668304, -1.836403876543045, -1.6521763503551483, -1.7509791553020477, -1.7509791553020477, -1.4231124818325043, -1.7864866256713867, -1.6564611196517944, -1.680369645357132, -1.7093177437782288, -1.720630168914795, -1.7502515316009521, -1.7650927901268005, -1.5215325057506561, -1.7365416288375854, -1.7405387461185455, -1.4647733271121979, -1.5167958736419678, -1.7519632875919342];[0.9460298918187617, 0.6985684968531132, 0.5247025318443774, 0.73307626247406, 1.0461929574608801, 0.7879493236541748, 0.7066249206662177, 0.8522207580506801, 0.48476614281535146, 0.48476614281535146, 0.7575339049100875, 1.0819651432335375, 0.7793596498668194, 0.6633686408400535, 0.726039694994688, 0.6153112202882767, 0.6668864518404006, 1.0032070845365524, 0.7264333292841911, 0.28484057933092116, 0.12734116539359092, 0.12734116539359092, 0.4595423474907875, 1.093518892675638, 0.8902100913226604, 0.5146133288741112, 0.6744868397712707, 0.7453548789024352, 0.8893093653023242, 0.8849317990243434, 0.7572512067854404, 0.8892797403037548, 0.6415740966796875, 0.6589384429156779, 0.7839713796973228, 0.9295662716031073, 0.8470789298415183, 0.7894649259746074, 0.9384339161217212, 0.8682311788201331, 0.8741848580539225, 0.5909289009869099, 0.9803870111703872, 5.711671044677495, 7.974576796777546, 8.441383650898933, 8.299326031096278, 8.19779753666371, 8.236990070343017, 8.31526128631085, 8.35982642378658, 8.525742016173899, 8.435470312088727, 8.74311544317752, 8.377334876731037, 8.2695756778121, 8.091836165450513, 8.270214506238698, 8.438979456201196, 8.527906295657157, 8.0554611582309, 8.33150421604514, 8.286811438947915, 8.399829547852278, 8.32479021437466, 8.161910711601376, 7.832284383103251, 7.912296540476381, 7.967661959677934, 7.753952892869711, 8.005202269367873, 8.152467743307351, 8.371816432848572, 8.391315197199582, 8.37928342949599, 8.267166676931083, 8.122834156639874, 7.890867502614856, 7.937733383662998, 8.249191157519817, 8.400932527519762, 8.29754411894828, 8.194535004906356, 7.815673740953207, 8.127010887488723, 8.439123799279331, 8.175907105207443, 7.991730301268398, 7.946885774843394, 7.967311896197497, 8.017625228874385, 7.91814960502088, 8.023047864250838, 8.347565535083412, 8.171735416911542, 8.171735416911542, 8.172314207442104, 8.113884728215634, 8.195637590624392, 8.188766718283295, 8.0275972712785, 8.093390138447283, 8.029545902833341, 7.732296388596295, 7.818669332563877, 7.5893721587955945, 7.967288022860884, 7.967288022860884, 8.506469851545988, 8.019380194880068, 8.198981354758143, 7.870517649874091, 8.098582549765705, 7.831550849229097, 7.808858730643987, 8.134972211904824, 8.474863050878048, 7.744889691844582, 8.023078828677534, 8.023078828677534, 8.110959574766456, 7.731348073482513, 8.212095380388199, 8.104014167189597, 8.084095452725887, 7.489051198214292, 8.152722155861555, 7.931718484684825, 7.913292287103832, 8.119279550760984, 8.271602862887084, 7.484705778211355, 7.882501355744898, 8.657631170377135];[0.007002900121733546, 0.03376150014810264, 0.051922200014814734, 0.06800359999760985, 0.08468840015120804, 0.10073120007291436, 0.11707759997807443, 0.1331710999365896, 0.15190870012156665, 0.16824200004339218, 0.18408689997158945, 0.19873409997671843, 0.21635170001536608, 0.23280370002612472, 0.24988669995218515, 0.2670692999381572, 0.2837056000716984, 0.30075130006298423, 0.3173491000197828, 0.333844400011003, 0.3514519000891596, 0.36725140013732016, 0.3834657999686897, 0.3999545001424849, 0.41686580004170537, 0.43326680012978613, 0.4507216000929475, 0.4665952001232654, 0.48564029997214675, 0.4988692000042647, 0.516461499966681, 0.5317905999254435, 0.5500624999403954, 0.5659440001472831, 0.5840098999906331, 0.5990548999980092, 0.6181336999870837, 0.6329795999918133, 0.6504450000356883, 0.6669110001530498, 0.6844727001152933, 0.6999922001268715, 0.716664900071919, 0.7334690000861883, 0.7503051999956369, 0.765913899987936, 0.7830584000330418, 0.7987766999285668, 0.8166676999535412, 0.8332758001051843, 0.850378300063312, 0.8667882001027465, 0.8832875001244247, 0.8997488999739289, 0.9169276000466198, 0.9344967000652105, 0.950617800001055, 0.9676320999860764, 0.9843605000060052, 1.0002977999392897, 1.016166300047189, 1.0332512999884784, 1.050822400022298, 1.0666775000281632, 1.0836320000234991, 1.1001194999553263, 1.1173469999339432, 1.1337572000920773, 1.1506757999304682, 1.1654261001385748, 1.1837937000673264, 1.200087800156325, 1.2177170000504702, 1.2337211000267416, 1.250585300149396, 1.2669033000711352, 1.2847500001080334, 1.3002446999307722, 1.3174310999456793, 1.3326689000241458, 1.3505854001268744, 1.3664647000841796, 1.3850030000321567, 1.399610900087282, 1.4177385000512004, 1.4338200001511723, 1.450433700112626, 1.4661268000490963, 1.4837613999843597, 1.5005447000730783, 1.5173661999870092, 1.5348140001296997, 1.551216300111264, 1.566809399984777, 1.584464699961245, 1.6014505999628454, 1.6171411001123488, 1.6334716000128537, 1.6501832001376897, 1.6669199999887496, 1.6832139000762254, 1.6995079000480473, 1.7171007001306862, 1.7334179999306798, 1.7503947000950575, 1.7667167999316007, 1.78361209994182, 1.8010148999746889, 1.817324300063774, 1.8352847001515329, 1.8511479999870062, 1.866524799959734, 1.8840253001544625, 1.8999968999996781, 1.916992099955678, 1.93190379999578, 1.9504543000366539, 1.9663577999453992, 1.9861755000893027, 2.0001771000679582, 2.0175364001188427, 2.0338332999963313, 2.0509611000306904, 2.066679799929261, 2.0846915000583977, 2.100538100115955, 2.1175164999440312, 2.1322509001474828, 2.151132400147617, 2.1674085000995547, 2.1834478001110256, 2.1997740999795496, 2.2161654999945313, 2.2310834999661893]
S14;1;0;0;1;False;3000;True;;8;161.0395040180902;eye;L;-5.861335635185242;1.8506954066455363;162.48;6.15;1.634802300017327;1.6348739999812096;1686139335.598943;1686139335.6124036;1686139336.3673787;1686139336.8680985;1686139339.8653712;1686139341.4995823;[-0.25738173723220825, -0.24201953411102295, -0.3737754821777344, -0.3249952495098114, -0.3947599232196808, -0.49441322684288025, -0.4609827399253845, -0.5074334442615509, -0.38118138909339905, -0.4813358187675476, -0.4382871091365814, -0.44260698556900024, -0.4538361728191376, -0.3745744526386261, -0.41349467635154724, -0.4666961431503296, -0.5471758544445038, -0.5277848243713379, -0.46552005410194397, -0.46552005410194397, -0.42360666394233704, -0.5507630109786987, -0.45202872157096863, -0.45202872157096863, -0.39646828174591064, -0.3802584111690521, -0.3038432002067566, -0.32857730984687805, -0.4520893096923828, -0.6210944950580597, -2.0851073563098907, -5.598527580499649, -6.376286536455154, -6.294712841510773, -6.301248997449875, -6.522329390048981, -6.494368821382523, -6.298431932926178, -6.136353611946106, -6.13026762008667, -6.085283488035202, -6.1246867179870605, -6.180959492921829, -6.326304733753204, -6.607721269130707, -6.51673886179924, -6.573780596256256, -6.546028971672058, -6.494304835796356, -6.17278179526329, -6.125370174646378, -6.235271364450455, -6.252105802297592, -6.167032152414322, -6.167032152414322, -6.040089279413223, -6.176425576210022, -6.20328027009964, -6.135752260684967, -6.20737025141716, -6.216188937425613, -6.161568462848663, -6.323526173830032, -6.332069098949432, -6.353241533041, -6.172626078128815, -6.265115261077881, -6.265115261077881, -6.040004342794418, -5.834264636039734, -6.1892028748989105, -5.95092847943306, -6.359507590532303, -6.408440709114075, -6.417528927326202, -6.175885379314423, -6.068283140659332, -5.917147487401962, -5.975523293018341, -6.14201945066452, -6.239737331867218, -6.11012801527977, -6.0737802386283875, -6.1310093998909, -6.095709174871445, -6.104829102754593, -6.1586874127388, -6.110082149505615, -6.14324027299881, -6.205409348011017, -6.224214881658554, -6.137508749961853, -6.112401485443115, -5.8707981407642365, -5.979748040437698, -5.977613300085068, -5.941390097141266, -5.861335635185242];[0.7165291249752044, 0.43850261047482486, 0.496900101006031, 0.6554351292550563, 0.7005562081933021, 0.6103052258491516, 0.682831634581089, 0.5910634741187095, 0.47115503177046775, 0.7410642966628074, 0.6168914303183555, 0.6424849078059196, 0.7414815679192542, 0.6944279305636882, 0.7143791064620018, 0.7743794985115527, 0.6798461280763148, 0.6820969976484775, 0.6919857591390609, 0.6919857591390609, 0.740854400396347, 0.7862439952790736, 0.9906397819519043, 0.9906397819519043, 0.9345142766833304, 0.8433962903916835, 0.8075175806879997, 0.8890670076012611, 0.8498132541775703, 0.9175400979816913, 1.2991784691810606, 2.217584310472011, 2.3376040041446684, 2.1743762500584123, 2.159398607164621, 2.174615456163883, 2.2430180020630357, 2.24576398730278, 2.3618634112179278, 2.2719925113022326, 2.2121071524918077, 2.1654298156499863, 2.332014649361372, 2.344484882801771, 2.6209204718470573, 2.467716682702303, 2.3942507833242415, 2.4029936246573924, 2.394821537286043, 2.2155452281236645, 2.2259161837399004, 2.411489380896091, 2.3408227287232872, 2.299225763976574, 2.299225763976574, 2.1969653114676473, 2.26407381221652, 2.186463879793882, 2.092156793922186, 2.1217846289277076, 1.968786323815584, 1.9519968286156653, 1.9356485567986963, 1.8301687493920324, 1.899790647625923, 1.9291112020611763, 1.735300364345312, 1.735300364345312, 1.6655167892575262, 1.860997027158737, 2.3821228131651875, 2.0176581166684624, 2.0879777781665325, 2.220463293045759, 2.2657211512327193, 1.9384314157068727, 1.6890554264187811, 1.5191787511110304, 1.5635406106710432, 1.8147357009351253, 2.015718939900398, 2.149203510582447, 2.0542673662304876, 2.1820462882518767, 2.1840201325714586, 2.166349136084318, 2.239204571396112, 2.2579143337905405, 2.099211325496435, 1.9014011129736899, 1.9513283751904964, 2.014108159393072, 2.0639875173568725, 2.0180170834064484, 2.0496480725705624, 2.082497468590736, 1.844806019961834, 1.8506954066455363];[0.005402500042691827, 0.01991740008816123, 0.038650000002235174, 0.053382999962195754, 0.07020529988221824, 0.08572699991054833, 0.10414090007543564, 0.12037339992821217, 0.13655659998767078, 0.15291909989900887, 0.17114489991217852, 0.18733530002646148, 0.20372839993797243, 0.2198346999939531, 0.236926699988544, 0.25337240006774664, 0.2705450998619199, 0.2878918000496924, 0.3048407998867333, 0.32184850005432963, 0.33952110004611313, 0.35498229996301234, 0.37252609990537167, 0.38787960004992783, 0.4058161999564618, 0.4193354998715222, 0.4363821998704225, 0.4526814999990165, 0.47024779999628663, 0.48638859996572137, 0.5033887000754476, 0.5182749999221414, 0.5364679000340402, 0.5535063999705017, 0.5700002999510616, 0.5865762999746948, 0.603085600072518, 0.6209559000562876, 0.6367446000222117, 0.6528614000417292, 0.6699077000375837, 0.685861999867484, 0.7033480999525636, 0.7186310000251979, 0.7365866999607533, 0.7525885999202728, 0.7703028998803347, 0.7872729999944568, 0.8060856000520289, 0.8185373998712748, 0.8366644999478012, 0.8532277999911457, 0.8693921999074519, 0.8878401999827474, 0.9029055999126285, 0.9189555000048131, 0.9363915999419987, 0.952979699941352, 0.9699709999840707, 0.9865413000807166, 1.0039731999859214, 1.0202424998860806, 1.036257900064811, 1.0518843000754714, 1.0702359999995679, 1.086778099881485, 1.1046418000478297, 1.1195255999919027, 1.13717220001854, 1.153366700047627, 1.1703574999701232, 1.1856541000306606, 1.2025544000789523, 1.2196317999623716, 1.2361989000346512, 1.2515950000379235, 1.2709737999830395, 1.2864824999123812, 1.303337600082159, 1.317884299904108, 1.3360218000598252, 1.352780600078404, 1.369096799986437, 1.3848403000738472, 1.4043725000228733, 1.4181470999028534, 1.4370162000413984, 1.4511917000636458, 1.469649399863556, 1.4863443998619914, 1.5031123000662774, 1.5186503999866545, 1.5377497000154108, 1.552006599958986, 1.5692624999210238, 1.584955400088802, 1.602742200018838, 1.619814199861139]
S14;2;0;0;1;False;3000;True;;8;-145.83836829140398;eye;L;-4.755725294351578;-3.1786703199148176;-146.24;5.72;2.549473100109026;2.5499283999670297;1686139342.3005106;1686139342.3117588;1686139343.06721;1686139343.5672894;1686139346.5671744;1686139349.1169178;[-0.334828644990921, -0.3908262252807617, -0.2631036341190338, -0.30805492401123047, -0.1351262331008911, -0.1351262331008911, -0.2863253057003021, -0.2824561595916748, -0.3113402724266052, -0.22396314144134521, -0.2539910674095154, -0.3333558440208435, -0.32620587944984436, -0.24512368440628052, -0.2665866017341614, -0.2576257884502411, -0.22618791460990906, -0.23992159962654114, -0.10216912627220154, -0.10216912627220154, -0.21162807941436768, -0.2401016652584076, -0.2585878372192383, -0.1274043619632721, -0.14346304535865784, -0.13132277131080627, 0.05279660224914551, -0.058466970920562744, 0.009997040033340454, -0.09610125422477722, -0.09610125422477722, 0.034245312213897705, -0.05001181364059448, 0.042657434940338135, -0.10227671265602112, -0.10502809286117554, -0.09296765923500061, -0.1794014275074005, -0.09793192148208618, -0.17104989290237427, -0.08450174331665039, -0.01242905855178833, -0.3023075461387634, -0.24841752648353577, -0.15749400854110718, -0.10409265756607056, -0.16637611389160156, -0.060248374938964844, -0.17807981371879578, -0.05292797088623047, -0.13790932297706604, -0.09776827692985535, -0.06648442149162292, -0.07545939087867737, 0.15263676643371582, 0.15263676643371582, -2.2852101027965546, -2.595293313264847, -2.76374414563179, -4.197003722190857, -4.635814607143402, -4.6675978899002075, -4.734448671340942, -4.696975201368332, -4.84956893324852, -4.723185509443283, -4.882758766412735, -4.882758766412735, -4.973280251026154, -4.873954802751541, -4.751246869564056, -4.722257435321808, -4.77047935128212, -4.919386833906174, -4.705013036727905, -4.588489055633545, -4.605671167373657, -4.6453739404678345, -4.796089440584183, -4.796089440584183, -4.768049597740173, -4.809273302555084, -4.6757835149765015, -4.626458555459976, -4.728299260139465, -4.505219459533691, -4.541443228721619, -4.631447732448578, -4.610594093799591, -4.565683007240295, -4.6549451649188995, -4.6549451649188995, -4.660820513963699, -4.540851503610611, -4.603401094675064, -4.503296494483948, -4.573013037443161, -4.493382126092911, -4.627387762069702, -4.468535900115967, -4.740386873483658, -4.60753071308136, -4.892123311758041, -4.892123311758041, -5.07779985666275, -4.839522629976273, -4.941873520612717, -4.969227075576782, -4.970275193452835, -4.968436598777771, -4.63602015376091, -4.895812392234802, -4.819665014743805, -4.786703944206238, -4.804499298334122, -4.870260626077652, -4.870260626077652, -4.835865825414658, -4.813398957252502, -4.614960968494415, -4.871457099914551, -5.0560742020606995, -4.969597965478897, -4.849319219589233, -4.753093391656876, -5.233439415693283, -4.8497291803359985, -4.8497291803359985, -5.050234526395798, -5.05547171831131, -4.9290690422058105, -4.908757865428925, -4.842985779047012, -4.7370279133319855, -4.836741238832474, -4.945193409919739, -4.898981094360352, -4.899029225111008, -4.851096659898758, -4.924810320138931, -4.957389175891876, -4.820572704076767, -4.807479441165924, -4.998960554599762, -4.926428645849228, -4.902750581502914, -4.806937545537949, -4.92441338300705, -4.904240369796753, -4.91179633140564, -4.924404323101044, -4.755725294351578];[0.22674973905086515, 0.14997214302420614, 0.2133557729423046, 0.35807263031601905, 0.13678019419312476, 0.13678019419312476, 0.2261723667383194, 0.05775456503033637, 0.06760582253336905, 0.010653968900442123, 0.04135586768388748, 0.04269561097025871, 0.13867713958024977, 0.23213959783315657, 0.016126399487257, -0.053110058605670925, 0.04237320274114609, 0.29319829568266864, 0.4144534148275852, 0.4144534148275852, 0.40329140871763225, 0.4133490957319736, 0.10709405466914176, 0.00846833735704422, -0.016042251884937284, -0.06574732661247253, -0.1608177289366722, -0.14410922974348067, 0.32638428211212156, 0.37147951796650885, 0.37147951796650885, 0.42467088773846623, 0.46586413308978075, 0.5165695242583751, 0.3526666983962059, 0.3772406347095966, 0.12264528796076773, 0.22434853836894034, -0.0134232759475708, -0.128457460552454, 0.06716018691658973, -0.05000794306397438, -0.020273268967866895, -0.1063348352909088, 0.29289574250578876, 0.5689635403454303, 0.5445991851389408, 0.6298290453851223, 0.6360802352428436, 0.6697465248405933, 0.5799421235918998, 0.5796206608414649, 0.8100703731179237, 0.5929027453064918, 0.30488913953304286, 0.30488913953304286, -0.8850020796060561, -1.3468772381544112, -1.3313902974128722, -2.4183913752436634, -3.5759182289242744, -3.3502022132277487, -3.3191879913210864, -3.1577059060335158, -2.8126389652490613, -2.8062885001301763, -2.927331832051277, -2.927331832051277, -3.088160276412964, -3.2261629745364186, -3.267079509794712, -3.07478868663311, -3.00527583360672, -3.0717877373099327, -2.8627726569771763, -2.8680950716137885, -2.952739365398884, -2.9242533534765243, -2.8700074598193166, -2.8700074598193166, -2.9269057363271713, -3.0461829140782353, -3.2658951401710508, -3.2723225042223927, -3.1980879306793213, -3.008609591424465, -3.201021435856819, -3.1591474458575246, -3.3886352911591526, -3.2370548889040944, -3.0879875689744947, -3.0879875689744947, -3.3509088009595867, -3.2238131448626515, -3.162785017490387, -3.433311679959297, -3.277637985348701, -3.4358651027083393, -3.367341850697994, -3.289074495434761, -3.2741119801998138, -3.2234273895621297, -3.229718604683876, -3.229718604683876, -2.859416207671165, -3.2490076303482054, -3.088744582235813, -2.9922515496611592, -2.8869195520877837, -2.985581512749195, -2.9594207480549812, -3.407263112068176, -3.5133224979043005, -3.6250081121921536, -2.725635387003422, -2.856179518997669, -2.856179518997669, -2.974299430847168, -3.089575973153114, -3.0062692165374756, -2.919016662240028, -3.226514062285423, -3.2583495900034904, -3.010217535495758, -2.8097571462392805, -2.9414635866880414, -3.021868354082107, -3.021868354082107, -3.1748247429728504, -3.251196728646755, -3.2913392320275303, -3.379931844770908, -2.8763774648308753, -3.004003219306469, -3.1118035465478897, -3.109350974857807, -2.9516659319400786, -2.953181219100952, -2.6878048941493033, -2.550387132167816, -2.865651324391365, -3.3741915285587307, -3.2298024371266365, -3.261313350498676, -3.109728536009788, -3.132346276938915, -3.046033528447151, -2.910013183951378, -3.144694228470325, -3.413840492069721, -3.056477916240692, -3.1786703199148176];[0.006929699797183275, 0.03296869993209839, 0.05435549980029464, 0.0681839999742806, 0.08663299982436001, 0.10074549983255565, 0.11903829989023507, 0.13471179991029203, 0.15362379979342222, 0.1679706999566406, 0.18632229999639094, 0.20119829988107085, 0.21816239994950593, 0.2349805999547243, 0.25286059989593923, 0.26862689992412925, 0.2862023999914527, 0.3020450999028981, 0.31926539982669055, 0.3364993999712169, 0.3528643997851759, 0.36956399981863797, 0.3866397999227047, 0.4025784998666495, 0.41980559984222054, 0.43609429989010096, 0.4534577999729663, 0.4675462997984141, 0.4867147000040859, 0.5024505998007953, 0.5203378999140114, 0.5355785998981446, 0.5542500999290496, 0.5680241999216378, 0.5867873998358846, 0.6012237998656929, 0.6180146997794509, 0.6352102998644114, 0.6550139999017119, 0.6690724999643862, 0.6857281997799873, 0.7019434999674559, 0.7203330998308957, 0.7356946999207139, 0.7524553998373449, 0.7686256999149919, 0.7859810998197645, 0.8026596999261528, 0.8180801998823881, 0.8352983999066055, 0.853479899931699, 0.8694744999520481, 0.8872854998335242, 0.9009581999853253, 0.9180873997975141, 0.9350925998296589, 0.9526521000079811, 0.9675584998913109, 0.9859578998293728, 1.0013484999071807, 1.0195334998425096, 1.0356393998954445, 1.0521803998854011, 1.0673103998415172, 1.0864975999575108, 1.101179099874571, 1.1195063998457044, 1.1348863998427987, 1.152795200003311, 1.1679487999062985, 1.1859832999762148, 1.2012373998295516, 1.2190556998830289, 1.2336083999834955, 1.2534425999037921, 1.2685997998341918, 1.2848470997996628, 1.2985615998040885, 1.3187065999954939, 1.3359464998356998, 1.3527402998879552, 1.368984199827537, 1.3862961998675019, 1.4016469998750836, 1.420277499826625, 1.4352583999279886, 1.4518808999564499, 1.4665091999340802, 1.4869944998063147, 1.5027937998529524, 1.52006969996728, 1.5362102999351919, 1.5538543998263776, 1.5695030998904258, 1.5873529999516904, 1.6028670999221504, 1.6210668999701738, 1.6344117999542505, 1.6532285998109728, 1.667905499925837, 1.6849316998850554, 1.7026093997992575, 1.71970219979994, 1.7369489998091012, 1.752947899978608, 1.7682484998367727, 1.7844863999634981, 1.800681299995631, 1.8190544999670237, 1.8351878998801112, 1.8532708999700844, 1.8690902998205274, 1.8863335999194533, 1.9028731998987496, 1.921422999817878, 1.9358430998399854, 1.9531037998385727, 1.9681689999997616, 1.984584999969229, 2.0008133999072015, 2.0201178998686373, 2.033097199862823, 2.051162199815735, 2.0675594999920577, 2.0858981998171657, 2.1013738999608904, 2.1205440999474376, 2.1339496998116374, 2.1522144998889416, 2.1673716998193413, 2.185362799791619, 2.200691199861467, 2.21837309980765, 2.235773299820721, 2.2517795998137444, 2.2690627998672426, 2.2851984999142587, 2.3013937999494374, 2.317761399783194, 2.3345140998717397, 2.3521665998268872, 2.3690975999925286, 2.3852234999649227, 2.401043599937111, 2.417875099927187, 2.4349580998532474, 2.4518293999135494, 2.4663650998845696, 2.4852144999895245, 2.502145499922335, 2.517416999908164, 2.532650899840519]
S14;3;0;0;1;False;1000;False;;8;45.35594612225874;eye;L;nan;nan;nan;nan;0.0028426998760551214;0.002961499849334359;1686139350.6852276;1686139350.6942954;1686139351.4317236;1686139351.4327283;1686139351.433331;1686139351.4364872;[];[];[]
S14;3;0;0;1;False;1000;True;;8;102.05485277572015;eye;L;-1.4745149910449982;5.508594831079244;104.99;5.7;1.599812300177291;1.59988550003618;1686139352.0843666;1686139352.0933986;1686139352.848753;1686139353.3501215;1686139354.331254;1686139355.9316826;[-0.18477338552474976, -0.2109655737876892, -0.04196888208389282, -0.04196888208389282, -0.12464845180511475, -0.07507830858230591, -0.08368352055549622, -0.03606012463569641, -0.07453414797782898, -0.25641176104545593, -0.4351789951324463, -0.3291310966014862, -0.5534605979919434, -0.5544719099998474, -0.5217197835445404, -0.4755170941352844, -0.34745192527770996, -0.3249890208244324, -0.35304245352745056, -0.2920222878456116, -0.30823272466659546, -0.31809669733047485, -0.28941699862480164, -0.3200983703136444, 0.01167595386505127, -0.06503766775131226, -0.20133262872695923, -0.19269627332687378, -0.19269627332687378, -0.19639894366264343, -0.08973553776741028, -0.20418819785118103, -0.20670798420906067, -0.22315114736557007, -0.34048938751220703, -0.9947465360164642, -1.5407910346984863, -1.6350706815719604, -1.5653252601623535, -1.4584070444107056, -1.4584070444107056, -1.5708767175674438, -1.6504736542701721, -1.4967174232006073, -1.6471486687660217, -1.690681517124176, -1.7896898686885834, -1.8923470973968506, -1.701535850763321, -1.8312436938285828, -1.8105350136756897, -1.8831144869327545, -1.8831144869327545, -1.743814468383789, -1.8633350133895874, -1.9035876095294952, -1.853231519460678, -1.742750495672226, -1.8364876806735992, -1.6747819483280182, -1.6304138898849487, -1.7633210122585297, -1.674841970205307, -1.7080431282520294, -1.543327808380127, -1.6026413142681122, -1.6392484307289124, -1.604286253452301, -1.6240883767604828, -1.5807740986347198, -1.6005688607692719, -1.420724630355835, -1.6645663380622864, -1.7485930025577545, -1.702237993478775, -1.8177619874477386, -1.743732362985611, -1.779182642698288, -1.6738283932209015, -1.5178819298744202, -1.5207188129425049, -1.44149050116539, -1.4949416816234589, -1.3471298813819885, -1.4836349189281464, -1.4637501239776611, -1.6834137737751007, -1.4494332075119019, -1.5030808746814728, -1.4230971932411194, -1.5925140380859375, -1.6147430837154388, -1.5969901978969574, -1.5192460119724274, -1.5167879462242126, -1.4745149910449982];[0.8292856514453887, 0.7958809442818164, 0.5654693663120269, 0.5654693663120269, 0.4923151597380638, 0.7309445232152938, 0.8486503154039382, 0.9616926915943622, 0.7908796772360801, 0.4408265970647335, 0.550903321802616, 0.29684027954936026, 0.5707457676529883, 0.30011069029569626, 0.4003560125827789, 0.45830250978469844, 0.4437941394746303, 0.3953478120267391, 0.598074198514223, 0.6022097222506999, 0.7264286018908024, 0.9583624005317687, 0.9036027967929839, 0.9901790186762809, 0.9167326591908931, 0.9377307951450348, 1.0672865867614745, 0.7804570354521274, 0.7804570354521274, 1.153205070644617, 0.9306721664965152, 1.0177948750555514, 1.0292887441813945, 0.7456971421837806, 1.2615452662110327, 3.7793729491531844, 5.666026643291115, 5.415377409383654, 5.422261754795908, 5.743157218024134, 5.743157218024134, 5.776378029584884, 5.954224459826946, 5.921804941445589, 5.885607290267944, 5.775071535632014, 5.571614924445748, 5.384416291862726, 5.512607285007834, 5.79725703522563, 5.768114861100912, 5.83404041044414, 5.83404041044414, 5.692133988440037, 5.798025394231081, 5.944577898457646, 5.722698635235428, 5.5662674546241755, 5.828674188628792, 5.627230501547455, 5.515375488996505, 5.609051467850804, 5.571098535507917, 5.481396718695759, 5.533939962834119, 5.337380303442478, 5.634309930726886, 5.421200139820575, 5.34385825060308, 5.358729684725404, 5.538956042379141, 5.379678183048963, 5.626437402516603, 5.8546105597168205, 5.904812956228852, 5.939352552965283, 5.917681551352143, 6.072815377637744, 6.188659364730119, 6.205897489562631, 6.0837069768458605, 5.840043412148952, 5.8227436736226075, 5.793848111853003, 5.7400309927761555, 5.813421569019556, 5.940245084837079, 5.968628039583564, 6.126569779962301, 6.12797365821898, 6.1751067157834765, 5.522732416167855, 6.281560208648443, 5.88544104360044, 5.941665981709956, 5.508594831079244];[0.005757200066000223, 0.020398400025442243, 0.03557460010051727, 0.053600799990817904, 0.07076469995081425, 0.08757860003970563, 0.10278730001300573, 0.11985139991156757, 0.13466189987957478, 0.15377749991603196, 0.1718129999935627, 0.18678119988180697, 0.20223570009693503, 0.22105819988064468, 0.23698000004515052, 0.2534763999283314, 0.26958069996908307, 0.28704930003732443, 0.3032883999403566, 0.3211024000775069, 0.33609879994764924, 0.35340690007433295, 0.3692844999022782, 0.3869874000083655, 0.403154700063169, 0.42328149988316, 0.43691059993579984, 0.45330299995839596, 0.4690205999650061, 0.48615900008007884, 0.50288480008021, 0.5198081999551505, 0.5356147000566125, 0.5529320000205189, 0.5692205000668764, 0.5857448999304324, 0.60249809990637, 0.6189458998851478, 0.636240900028497, 0.6538678000215441, 0.6691614999435842, 0.6858113999478519, 0.7017763999756426, 0.7213473999872804, 0.7355609000660479, 0.7536583999171853, 0.769540699897334, 0.7868472998961806, 0.8028804999776185, 0.8205299000255764, 0.8375186999328434, 0.8536799000576138, 0.868989400099963, 0.8872781998943537, 0.9029298999812454, 0.9196738998871297, 0.9348094000015408, 0.9526335000991821, 0.9691703000571579, 0.9867898998782039, 1.002355600008741, 1.0210710000246763, 1.0364161999896169, 1.0538822999224067, 1.0709943999536335, 1.0875945000443608, 1.1032108999788761, 1.1202028000261635, 1.1367810000665486, 1.1537987999618053, 1.169060799991712, 1.1865481999702752, 1.2028536999132484, 1.221271000104025, 1.2348305999767035, 1.252913000062108, 1.2689060000702739, 1.283789600012824, 1.3012560000643134, 1.3221913001034409, 1.336220399942249, 1.3548560000490397, 1.3711021000053734, 1.38732560002245, 1.4032558999024332, 1.420496999984607, 1.4362651999108493, 1.454200099920854, 1.4690642999485135, 1.4868534998968244, 1.5028657000511885, 1.519671899965033, 1.5355869999621063, 1.555741999996826, 1.5692340000532568, 1.5871977000497282]
S14;4;0;0;1;False;1000;True;;8;63.34125050428787;eye;L;2.9240076541900635;5.675086377561092;62.74;6.38;0.9660283999983221;0.96608110005036;1686139356.7897959;1686139356.7937462;1686139357.549294;1686139358.0495315;1686139359.0311882;1686139359.996597;[-0.005447268486022949, -0.005447268486022949, 0.01215103268623352, 0.027736902236938477, -0.019443124532699585, -0.013384312391281128, -0.11815080046653748, -0.0253048837184906, -0.04379671812057495, -0.054106324911117554, -0.014483392238616943, -0.04429501295089722, -0.0922706127166748, -0.10699012875556946, -0.1163354218006134, -0.1153818666934967, -0.04479387402534485, -0.0559975802898407, -0.09821844100952148, -0.12617674469947815, -0.06985244154930115, -0.08319202065467834, 0.01546412706375122, -0.08334717154502869, 0.00340878963470459, -0.051046907901763916, -0.051046907901763916, 0.12310656905174255, 0.12795305252075195, 0.06235423684120178, 1.7729851007461548, 3.266302227973938, 3.041677713394165, 3.414227843284607, 3.4060603380203247, 3.2405200004577637, 3.4222617149353027, 3.4089821577072144, 3.205834150314331, 2.915507197380066, 2.980654716491699, 2.874212145805359, 2.8782098293304443, 2.8639585971832275, 2.94136643409729, 2.893790602684021, 2.9340165853500366, 3.1020076274871826, 3.2025431394577026, 3.341159701347351, 3.2847663164138794, 3.324183702468872, 3.2054898738861084, 3.2501801252365112, 3.2894095182418823, 3.065582275390625, 2.87027108669281, 2.9240076541900635];[0.5034730687737464, 0.5034730687737464, 0.5063217960298061, 0.42507334649562833, 0.3901000902056694, 0.6015340201556683, 0.413624545186758, 0.4806258916854858, 0.4029264539480209, 0.5681034699082375, 0.7054689154028893, 0.6704836830496788, 0.40948114246129985, 0.2955519072711468, 0.2685194112360477, 0.44170652255415915, 0.8245506942272186, 0.8966374553740024, 0.7535367362201213, 0.46725524738430974, 0.16590976193547247, 0.2347406096756458, 0.36360084414482113, 0.5331803239881991, 0.5590653240680694, 0.7712915651500225, 0.7712915651500225, 0.9979001127183437, 1.078832772374153, 0.9547579206526279, 3.6907592207193374, 5.694590657204389, 6.450240223109722, 6.970982775092124, 6.696132438629865, 6.545966472476721, 6.535667373239994, 6.5323843561112875, 6.419405326992273, 6.318313801288604, 6.516137565672397, 6.418065268546343, 6.07958957478404, 6.5756667941808695, 6.704479439556598, 6.619549926370381, 6.71628468632698, 6.466422720998525, 6.194907087832689, 6.148474629968405, 6.037946911901235, 6.436394003033637, 6.24097553640604, 6.604015396535396, 5.902086353302002, 5.939489489793777, 6.190160784870386, 5.675086377561092];[0.004549900069832802, 0.019232300110161304, 0.03590890020132065, 0.05351680004969239, 0.06966110016219318, 0.0876218001358211, 0.10334810009226203, 0.12103880010545254, 0.13721200008876622, 0.15476970002055168, 0.17099630017764866, 0.18878370011225343, 0.20158990006893873, 0.22113930014893413, 0.23720040009357035, 0.25336770014837384, 0.26961110020056367, 0.28769850009121, 0.3028679001145065, 0.32114740018732846, 0.33635870018042624, 0.3546177002135664, 0.3700039000250399, 0.3880104999989271, 0.40326390019617975, 0.4226638001855463, 0.4378671001177281, 0.4543711000587791, 0.4705455000512302, 0.48849160014651716, 0.5028296001255512, 0.5205404001753777, 0.5367791000753641, 0.5536181000061333, 0.5706269000656903, 0.5868474000599235, 0.603717700112611, 0.6210853001102805, 0.6377178002148867, 0.6547836000099778, 0.6711750000249594, 0.6869157000910491, 0.7029335000552237, 0.7208987001795322, 0.7370208001229912, 0.7546842000447214, 0.7702397000975907, 0.7880150000564754, 0.8036644000094384, 0.8204124001786113, 0.8372868001461029, 0.8543125002179295, 0.8700701000634581, 0.8871717001311481, 0.9046705001965165, 0.9198806001804769, 0.9370587000157684, 0.9536583002191037]
S14;5;0;0;1;False;3000;True;;8;-62.78127807507003;eye;L;2.609177052974701;-4.130401763319969;-57.72;4.89;2.280346400104463;2.2804149999283254;1686139360.7912734;1686139360.8104007;1686139361.5664005;1686139362.0670345;1686139365.0648363;1686139367.3448;[0.03112700581550598, 0.06487685441970825, -0.062170207500457764, -0.1706104874610901, -0.10205531120300293, -0.06052866578102112, -0.0021653175354003906, 0.1611066460609436, 0.1830231249332428, 0.03539535403251648, -0.09247899055480957, 0.02499571442604065, -0.004954636096954346, 0.025215983390808105, -0.043852776288986206, -0.1723833978176117, -0.059369564056396484, -0.07664340734481812, -0.07664340734481812, -0.1470383107662201, -0.011115938425064087, -0.037470072507858276, -0.0923261046409607, 0.008212804794311523, 0.03674471378326416, -0.09412789344787598, -0.15105128288269043, -0.12918689846992493, -0.06638872623443604, 0.08735731244087219, 0.11222505569458008, 0.1494465470314026, -0.04733404517173767, -0.04490259289741516, -0.061265915632247925, -0.07280087471008301, -0.2244846522808075, 0.008799999952316284, 0.06334346532821655, 0.12142142653465271, 2.2852163314819336, 2.5161635279655457, 2.5161635279655457, 2.303752899169922, 2.2807803750038147, 2.3967766165733337, 2.617269814014435, 2.6236830949783325, 2.519751250743866, 2.599661886692047, 2.55643367767334, 2.5640666484832764, 2.6256049275398254, 2.738187849521637, 2.71615868806839, 2.71615868806839, 2.728673815727234, 2.685536205768585, 2.650950014591217, 2.63805890083313, 2.6316195726394653, 2.7936390042304993, 2.904464304447174, 2.7099934220314026, 2.6562092900276184, 2.6865928173065186, 2.702957272529602, 2.702957272529602, 2.645151674747467, 2.8374685645103455, 2.918211579322815, 2.8379510045051575, 2.806116759777069, 2.7725090384483337, 2.8182955384254456, 2.656986176967621, 2.6072880625724792, 2.543773591518402, 2.6723212003707886, 2.6723212003707886, 2.583358585834503, 2.673144519329071, 2.652656674385071, 2.6672986149787903, 2.5627574920654297, 2.695093274116516, 2.498462736606598, 2.3915920853614807, 2.5715025663375854, 2.7470110654830933, 2.6332480907440186, 2.649709939956665, 2.717403292655945, 2.5937865376472473, 2.416451334953308, 2.542555034160614, 2.6321903467178345, 2.5876371264457703, 2.7417868971824646, 2.592239558696747, 2.610615313053131, 2.7136071920394897, 2.739525318145752, 2.726354479789734, 2.6060094833374023, 2.6228235363960266, 2.5610055327415466, 2.4854277968406677, 2.5314090847969055, 2.5258859395980835, 2.5768569707870483, 2.571817398071289, 2.53874534368515, 2.5505934357643127, 2.569740414619446, 2.5562694668769836, 2.5562694668769836, 2.6629555225372314, 2.701797604560852, 2.628197193145752, 2.7437223196029663, 2.68914657831192, 2.5871829986572266, 2.6755374670028687, 2.6062246561050415, 2.487864911556244, 2.6875576972961426, 2.7743719816207886, 2.7646427750587463, 2.6312333941459656, 2.4968817830085754, 2.5050923228263855, 2.4439526796340942, 2.5435482263565063, 2.5043856501579285, 2.5890085697174072, 2.609177052974701];[0.8626938253641128, 0.8482538446784019, 0.9240991987287998, 0.46781402528285976, 0.5542812019586563, 0.5086243517696857, 0.26572237014770506, 0.2689874231815338, 0.18211432099342345, 0.12125448882579802, 0.061037897318601604, -0.0011853151023387908, 0.027599783241748808, -0.0707249566912651, 0.26843305751681323, 0.441399872303009, 0.6443642042577267, 1.034041665494442, 1.034041665494442, 0.9318089470267296, 0.9713309012353419, 0.9831169232726097, 1.031498958170414, 1.0660883501172065, 0.9859631292521953, 0.8109279222786426, 0.41738124713301655, 0.22874186262488364, 0.04944664388895034, 0.087764373421669, 0.1431596539914608, 0.2119422823190689, 0.20006738528609275, 0.5041780807077885, 0.5011465609073639, 0.4254301071166992, 0.715662121027708, 1.018781954795122, 0.9271414339542389, 0.32437356412410734, -2.2744063183665273, -4.31275245398283, -4.31275245398283, -4.382742458581924, -4.523062840104103, -4.442012625932693, -4.399287074804306, -4.266942121088505, -4.051047737896442, -3.919559387862682, -3.8320742458105084, -3.8837604135274884, -4.001289086043834, -3.9824009433388707, -4.135303755104541, -4.135303755104541, -4.056269301474094, -3.9298367410898205, -4.038245956599712, -3.843852388858795, -3.8540251091122624, -3.8525356650352474, -3.904595611989498, -3.842317561805248, -3.992092730104923, -4.004301381111144, -4.109998963773251, -4.109998963773251, -4.154523445665836, -3.877308467030525, -3.849505090713501, -3.919294023513794, -4.103603745996952, -4.075858359038829, -3.8679822653532026, -4.024502478539944, -4.068464715778827, -4.113594304025173, -3.9101606994867324, -3.9101606994867324, -3.8994364500045773, -3.8906453892588613, -4.028385244309902, -4.194270738959312, -4.189317691326141, -3.964636029303074, -3.657291796803474, -3.8681385844945906, -4.074794380366802, -3.9850426107645034, -3.973269510269165, -4.013749234378338, -3.8996986627578734, -3.663736809790134, -3.3867808923125264, -3.5562245383858677, -3.7886881202459333, -3.810956664383411, -3.571330766379833, -3.630468566715717, -3.618365179002285, -3.7210460543632506, -3.721435591578483, -3.6666532963514324, -3.625428535044193, -3.6289690375328063, -3.587232457101345, -3.402621442079544, -3.803931757807731, -4.22035838663578, -4.255610243976116, -4.161394554376602, -4.050885115563869, -4.227859814465045, -4.007449194788933, -4.351929308474063, -4.351929308474063, -4.229606428742408, -3.81783911883831, -3.592672111093998, -3.6483689993619914, -3.7091702118515966, -3.624590210616588, -3.891614820063114, -4.158123198151588, -3.8233915999531742, -3.5985302969813344, -3.710917456448078, -3.615409612655639, -3.7996726915240284, -4.0919258236885065, -4.2625721186399455, -4.21431677788496, -3.9097068697214126, -3.629985742270946, -3.8593746274709697, -4.130401763319969];[0.006435999879613519, 0.01914649992249906, 0.03585810004733503, 0.052322200033813715, 0.06967650004662573, 0.08578879991546273, 0.10442580003291368, 0.11810639989562333, 0.1377840000204742, 0.1534309999551624, 0.17023689998313785, 0.1892538999672979, 0.2024814998731017, 0.21828519995324314, 0.236777100013569, 0.25420850003138185, 0.2700944999232888, 0.28738619992509484, 0.30616259993985295, 0.32079989998601377, 0.3387130000628531, 0.3535130999516696, 0.3719836000818759, 0.3858465999364853, 0.4037001000251621, 0.42051049997098744, 0.4362301998771727, 0.45214430009946227, 0.4709254999179393, 0.48557220003567636, 0.5047826999798417, 0.5208671998698264, 0.5369150000624359, 0.5513911000452936, 0.5706279000733048, 0.5854271999560297, 0.6031154999509454, 0.6178204000461847, 0.6367945000529289, 0.651952899992466, 0.6703137999866158, 0.6860396000556648, 0.7029267000034451, 0.7181720999069512, 0.7380357999354601, 0.7532961999531835, 0.7715318000409752, 0.7870769000146538, 0.8033362999558449, 0.8181636000517756, 0.8369088000617921, 0.8521916999015957, 0.870357200037688, 0.8853470999747515, 0.903272100025788, 0.91902059991844, 0.9349338999018073, 0.951698400080204, 0.9691995999310166, 0.9853316999506205, 1.0036494999658316, 1.0188466999679804, 1.035244399914518, 1.0527591998688877, 1.0701208000537008, 1.0866477000527084, 1.1036678000818938, 1.1176674000453204, 1.1369066000916064, 1.1535845000762492, 1.1700543998740613, 1.1854465000797063, 1.2027779000345618, 1.2207949999719858, 1.2378283999860287, 1.2538948999717832, 1.2710363999940455, 1.286054200027138, 1.3039210001006722, 1.319431799929589, 1.3376847000326961, 1.352020899998024, 1.3702110000886023, 1.3855278000701219, 1.4027050998993218, 1.4187457000371069, 1.4358564999420196, 1.452066499972716, 1.468720099888742, 1.4842320000752807, 1.5014911000616848, 1.5190912000834942, 1.5360395000316203, 1.5526924000587314, 1.5677920000161976, 1.584927799878642, 1.6003747000358999, 1.6165273000951856, 1.6359818999189883, 1.6515655999537557, 1.6683231999631971, 1.686257400084287, 1.7018309000413865, 1.7185684000141919, 1.7350168998818845, 1.751644799951464, 1.7688219998963177, 1.7850059000775218, 1.8031180000398308, 1.8191201998852193, 1.8350835999008268, 1.8503071998711675, 1.8688083998858929, 1.8855449999682605, 1.9025326000992209, 1.9181665000505745, 1.9351613998878747, 1.95129289990291, 1.969089699909091, 1.9857773000840098, 2.001026199897751, 2.0160747000481933, 2.034199499990791, 2.049564199987799, 2.066908299922943, 2.084015700034797, 2.099962200038135, 2.1176209999248385, 2.1334822000935674, 2.150072299875319, 2.166159699903801, 2.1827316998969764, 2.200577999930829, 2.215911499923095, 2.233766600023955, 2.249994399957359, 2.266539900097996]
S14;6;0;0;1;False;1000;True;;8;101.28679579712072;eye;L;-1.1063362658023834;6.386528984829783;99.83;6.48;0.8997949999757111;0.8999195001088083;1686139368.0565922;1686139368.0768058;1686139368.8322065;1686139369.3324068;1686139370.313675;1686139371.2144995;[0.3120344877243042, 0.3306373059749603, 0.288774311542511, 0.33808568120002747, 0.2374250292778015, 0.3273128867149353, 0.2707303762435913, 0.18685942888259888, 0.10593068599700928, 0.12687718868255615, -0.23524782061576843, -0.16692820191383362, -0.19212380051612854, -0.10538369417190552, -0.08153349161148071, -0.10990402102470398, -0.17252779006958008, -0.20199060440063477, -0.09463128447532654, -0.23751166462898254, -0.1836431622505188, -0.3775704503059387, -0.3775704503059387, -1.0154801309108734, -0.9286647140979767, -1.0904610455036163, -1.1595139503479004, -1.2338765263557434, -1.2107635736465454, -1.235723614692688, -1.298620879650116, -1.2595256865024567, -1.1450843513011932, -1.1148678660392761, -1.036560833454132, -1.0200032889842987, -1.1373058557510376, -1.0845047235488892, -1.3106433749198914, -1.1112444698810577, -1.1651056110858917, -1.1458652019500732, -1.0162677764892578, -1.1106300950050354, -0.9004674553871155, -0.8471283912658691, -0.9724846482276917, -1.2379653751850128, -1.1073170006275177, -1.138071984052658, -1.2645720541477203, -0.9496672749519348, -1.2475700080394745, -1.1063362658023834];[0.5423804618418216, 0.6100212670862675, 0.24351055473089217, 0.35961060896515845, 0.3342683136463165, 0.5574715621769428, 0.5654756695032119, 0.5774580359458923, 0.6895202659070492, 0.5325827814638614, 0.5323719397187232, 0.5403407491743564, 0.6310275971889495, 0.9062107421457767, 0.7643722370266914, 0.32370952293276783, 0.519879014790058, 0.5721687130630015, 0.5226253151893615, 0.6599497899413108, 0.6297338671982288, 1.5669137634336947, 1.5669137634336947, 4.959760216623544, 6.1270072214305396, 6.204930422455072, 6.184992325678468, 6.320022438839078, 6.089134182035923, 5.98634709790349, 6.2538149792701, 6.156940130889415, 6.10929777547717, 5.993555742502212, 5.991851202026009, 6.072893064469099, 6.2470127329230305, 6.102831174060702, 6.021250546351075, 6.334594944119453, 6.253664963319897, 6.20303662866354, 5.95569326095283, 6.0986650798469775, 6.106119391322135, 6.441785437613725, 6.463098260387778, 6.450462410598993, 6.721688412129878, 6.492283768951893, 6.7777727890759705, 5.883362251147627, 5.955596349388361, 6.386528984829783];[0.00678320019505918, 0.02151730004698038, 0.03598720021545887, 0.0544771000277251, 0.06878329999744892, 0.0864790000487119, 0.10335870017297566, 0.11979210004210472, 0.1340598000679165, 0.15366830001585186, 0.17035760008729994, 0.1899376001674682, 0.20233370014466345, 0.22094470006413758, 0.23583940020762384, 0.25482480018399656, 0.2697181000839919, 0.28956220019608736, 0.3044464001432061, 0.32125960011035204, 0.3361340002156794, 0.3550455002114177, 0.3720870001707226, 0.3888164001982659, 0.4024657001718879, 0.41877470002509654, 0.4351877002045512, 0.45247520017437637, 0.46913490002043545, 0.4883215001318604, 0.5030639001633972, 0.5208922000601888, 0.5367590000387281, 0.5533930000383407, 0.5694945000577718, 0.5873931001406163, 0.6027016001753509, 0.6206605001352727, 0.6373732001520693, 0.6536921001970768, 0.6684070001356304, 0.6863332001958042, 0.7018957000691444, 0.7218084000051022, 0.7358891000039876, 0.7549278000369668, 0.7698133999947459, 0.7859402000904083, 0.8029430001042783, 0.8198342001996934, 0.8358385001774877, 0.8534610001370311, 0.8677984999958426, 0.8864255000371486]
S14;7;0;0;1;False;3000;True;;8;-74.04461641450028;eye;L;1.803393542766571;-5.593178929388523;-72.13;5.88;1.0533286000136286;1.0534204000141472;1686139371.945021;1686139371.9607804;1686139372.7138329;1686139373.2162955;1686139376.213797;1686139377.2673814;[0.21453744173049927, 0.3850312829017639, 0.43338286876678467, 0.3474281430244446, 0.4012972116470337, 0.37386834621429443, 0.29038357734680176, 0.3636782169342041, 0.2523648142814636, 0.2170102298259735, 0.3052622079849243, 0.275306761264801, 0.25371021032333374, 0.2738243341445923, 0.30257368087768555, 0.21191290020942688, 0.26313817501068115, 0.22129839658737183, 0.3083606958389282, 0.2699750065803528, 0.5452240109443665, 1.519749402999878, 1.6309155821800232, 1.8190966248512268, 1.891875982284546, 2.103365898132324, 2.1147406101226807, 2.0281007289886475, 1.776598870754242, 1.7209121584892273, 1.750391960144043, 1.5827995538711548, 1.7229336500167847, 1.8027423620224, 1.853127896785736, 1.8792849779129028, 1.7399696707725525, 1.8061975836753845, 1.9597573280334473, 1.7826792001724243, 1.716130793094635, 1.9169379472732544, 1.9292016625404358, 1.963634967803955, 1.9709112048149109, 1.8146991729736328, 1.8036143779754639, 1.8642659187316895, 1.7501598000526428, 1.6878729462623596, 1.7471439838409424, 1.6167096495628357, 1.6160890460014343, 1.7381191849708557, 1.806699275970459, 1.7513840198516846, 1.7223005890846252, 1.7478506565093994, 1.723385512828827, 1.8519002795219421, 1.7716793417930603, 1.9464879631996155, 1.803393542766571];[0.4149583004415035, 0.5894057348370552, 0.7285442680120467, 0.8515794083476066, 0.8431246228516102, 0.9137090183794497, 0.7639127343893051, 0.47109956368803974, 0.48549290075898166, 0.491118498891592, 0.49561267420649524, 0.5063233718276023, 0.7665736265480518, 0.9851471811532974, 1.1195340536534786, 0.6322790957987308, 0.256168308109045, 0.9936180397868156, 0.9541953608393668, 0.9579038433730601, 0.3029505930840969, -3.8943535566329954, -5.708255660533904, -6.218779478967189, -6.368406522274017, -6.168733401596546, -5.925456064939499, -5.902472738921642, -6.079357932507992, -6.196964764595031, -6.189369419217109, -6.367988620698451, -6.381979183852672, -6.079156230390072, -5.692894783616065, -5.585859033465385, -5.498896425962448, -5.461728398501872, -5.495614984631538, -5.73795314580202, -5.680224739015102, -5.544036729633808, -5.77403954565525, -5.815375243127345, -5.804803530871868, -5.8484669968485825, -5.777614085376262, -5.679949919879436, -5.724417673051357, -5.517896765470504, -5.366825661063194, -5.606181782484054, -5.70587557554245, -5.788185797631741, -5.858432342112064, -5.757169054448604, -5.906756387650966, -5.809039905667305, -5.571036449074745, -5.742630743980407, -5.741854190826416, -5.753661328554153, -5.593178929388523];[0.005536699900403619, 0.019002099987119436, 0.03515369980596006, 0.05173920001834631, 0.06859249994158745, 0.08707839995622635, 0.10324699990451336, 0.12013960001058877, 0.13681229995563626, 0.15188349992968142, 0.17001000000163913, 0.1852835000026971, 0.20175829995423555, 0.21851709997281432, 0.2351171998307109, 0.2526184997987002, 0.27044499991461635, 0.28544589993543923, 0.30352610000409186, 0.3196058999747038, 0.33620379981584847, 0.35302459984086454, 0.3704500999301672, 0.38602669979445636, 0.40310849994421005, 0.41863719979301095, 0.4362732998561114, 0.45362339983694255, 0.47079649986699224, 0.48573359986767173, 0.5019100999925286, 0.5183401999529451, 0.5356601998209953, 0.5515957998577505, 0.5689665998797864, 0.585444699972868, 0.6022057998925447, 0.6190285999327898, 0.637239099945873, 0.6529021000023931, 0.6698139999061823, 0.6858373999129981, 0.7014682998415083, 0.718932299874723, 0.7370666000060737, 0.7532845998648554, 0.7708586999215186, 0.785526999970898, 0.8026160998269916, 0.8187404999043792, 0.8359792998526245, 0.8516410000156611, 0.8705982000101358, 0.8857253999449313, 0.9049806999973953, 0.9191830998752266, 0.936109900008887, 0.9518229998648167, 0.9692416000179946, 0.9851162999402732, 1.0030999998562038, 1.018186999950558, 1.0371769999619573]
S14;8;0;0;1;False;3000;True;;8;-115.26911005958502;eye;L;-2.168083071708679;-4.7441724836826324;-114.56;5.22;1.1974728000350296;1.1975743998773396;1686139377.9234817;1686139377.9430244;1686139378.6972923;1686139379.1989174;1686139382.1979046;1686139383.395544;[0.007323235273361206, -0.1555767059326172, -0.1627991497516632, -0.21866139769554138, -0.17884254455566406, -0.15761065483093262, -0.06291651725769043, -0.08825254440307617, -0.06781113147735596, -0.09351804852485657, -0.24166789650917053, -0.230412095785141, -0.30684542655944824, -0.14966964721679688, -0.2711794078350067, -0.13759392499923706, -0.10423704981803894, -0.06793513894081116, -0.09494385123252869, -0.1800684630870819, -1.700892597436905, -2.1193453073501587, -2.193029522895813, -2.3597963452339172, -2.193909466266632, -2.1500821709632874, -2.0525822937488556, -2.009378433227539, -2.0588347613811493, -2.1340144276618958, -2.0679484605789185, -2.1687670946121216, -1.930026113986969, -1.9905015528202057, -2.0575086176395416, -2.211050808429718, -2.2098905742168427, -2.035631775856018, -2.243710070848465, -2.087329864501953, -1.9421029686927795, -1.9841545224189758, -2.1060136556625366, -1.8785301744937897, -1.8532156646251678, -1.8390476703643799, -2.0187769532203674, -2.065509080886841, -2.25943523645401, -2.0867245495319366, -2.1850902140140533, -2.1070946156978607, -2.0827364921569824, -2.0348639488220215, -1.9378674626350403, -2.1405698359012604, -2.130515605211258, -2.167009472846985, -1.8378534615039825, -1.9407751262187958, -2.084826499223709, -2.121237128973007, -2.03317654132843, -2.0719297230243683, -2.0430291891098022, -1.9823198914527893, -2.265909105539322, -2.340214490890503, -2.2481035590171814, -2.1872549653053284, -2.218729645013809, -2.168083071708679];[0.8884486645460128, 1.0617999739944934, 0.9357178710401057, 1.0689225800335407, 0.8172853209078311, 0.7689764030277728, 0.7869672864675521, 0.7197743229568004, 1.0826625913381576, 0.9077216170728206, 0.7978308364748954, 0.6793321028351783, 0.5286587297916412, 0.6044104814529419, 0.6649762697517871, 0.966758881509304, 1.0512285768985747, 1.0537151858210563, 0.9541140496730803, 1.1018321715295314, -0.9591181531548499, -3.5455292835831638, -4.856035217642784, -4.972607065737247, -5.0018935829401014, -5.126581420004367, -5.124253021180629, -5.168415699899196, -5.064509484171867, -5.372151857614517, -5.273358160257339, -5.061989468336105, -5.213093349337577, -4.934521923959255, -4.693282409012317, -4.681584946811199, -4.595826879143715, -4.719498011469841, -4.5533767774701115, -4.553374256193638, -4.742592903971672, -4.696268230676651, -4.808523653447628, -4.960489811003208, -5.044371418654919, -4.97284532636404, -4.933380416035652, -4.776572147011756, -4.555012455582618, -4.604732657968998, -4.550033564865589, -4.640303456783294, -4.596254865825176, -4.553258907794952, -4.667555303871631, -4.812280355393886, -4.578462217748164, -4.281308984756469, -4.422864791750907, -4.401754774153233, -4.48556200414896, -4.315476693212986, -4.484174041450023, -4.423735892772674, -4.636706225574017, -4.999060298502445, -4.773027862608433, -4.98584439754486, -4.937045091390609, -4.565261444449424, -4.761477895081043, -4.7441724836826324];[0.005588699830695987, 0.01780839986167848, 0.03630769997835159, 0.052120399894192815, 0.07075099996291101, 0.0857598998118192, 0.10317209991626441, 0.11795169999822974, 0.13551699998788536, 0.15233849990181625, 0.16983839985914528, 0.18567819986492395, 0.20191189995966852, 0.21736549981869757, 0.2363705998286605, 0.251996599836275, 0.2683073999360204, 0.2858885999303311, 0.3027764998842031, 0.31945109996013343, 0.33854519994929433, 0.3531151998322457, 0.3701217998750508, 0.38537879986688495, 0.4020267999731004, 0.42014219984412193, 0.43743549985811114, 0.452361699892208, 0.4691023000050336, 0.4848840998020023, 0.503288900014013, 0.5176210999488831, 0.5338299998547882, 0.5524831998627633, 0.5680517998989671, 0.5847687998320907, 0.6046366998925805, 0.6197765998076648, 0.6360805998556316, 0.6521661998704076, 0.6692828999366611, 0.6847073999233544, 0.7026308998465538, 0.7185142999514937, 0.7343770998995751, 0.7535131999757141, 0.7695671999827027, 0.7868315000087023, 0.8035577998962253, 0.8177641998045146, 0.8350992000196129, 0.8529637998435646, 0.868694799952209, 0.8849931999575347, 0.9006919998209924, 0.9171829000115395, 0.9357527999673039, 0.9510049999225885, 0.9687591998372227, 0.9848436999600381, 1.0011810997966677, 1.01742949988693, 1.0356460998300463, 1.0506141998339444, 1.0683257000055164, 1.084768199827522, 1.1013084999285638, 1.1175330998376012, 1.1351810998748988, 1.1510320999659598, 1.168141699861735, 1.1840666998177767]
S14;9;0;0;1;False;1000;True;;8;-152.0352253907062;eye;L;-6.495608329772949;-3.6747617214918136;-150.5;7.46;1.5981241001281887;1.598207299830392;1686139384.0844297;1686139384.0925183;1686139384.8474317;1686139385.3486142;1686139386.3298104;1686139387.9280233;[0.15114527940750122, 0.24132248759269714, 0.02887788414955139, 0.08069035410881042, 0.036195456981658936, 0.17235621809959412, 0.23428690433502197, 0.1614169478416443, 0.20085415244102478, 0.14902356266975403, 0.1263551115989685, -0.08360821008682251, -0.08360821008682251, 0.06334176659584045, 0.048270612955093384, 0.08674973249435425, 0.13955426216125488, 0.23924776911735535, 0.016385972499847412, 0.08003464341163635, 0.018581867218017578, -2.114830642938614, -5.535014241933823, -5.856771141290665, -5.806651175022125, -5.824801564216614, -5.747103810310364, -5.657375067472458, -5.59132382273674, -5.568772584199905, -5.598253518342972, -5.753326267004013, -5.671546459197998, -5.771931350231171, -5.959847390651703, -5.927468419075012, -6.183108955621719, -5.964355260133743, -5.76524230837822, -5.754927039146423, -5.7181024849414825, -5.604146987199783, -5.533582776784897, -5.602321416139603, -5.7315592765808105, -5.6233296394348145, -5.787260711193085, -5.784233003854752, -5.835127592086792, -5.949451148509979, -5.867918223142624, -6.133612424135208, -6.150534063577652, -6.891634374856949, -6.818620592355728, -6.882351934909821, -6.8024322390556335, -6.957263767719269, -6.958112001419067, -6.745859354734421, -6.880886495113373, -6.895642250776291, -6.843578368425369, -6.794836640357971, -6.721527844667435, -6.68233922123909, -6.719002395868301, -6.5606522262096405, -6.39092281460762, -6.5906892120838165, -6.500316083431244, -6.486930638551712, -6.417839229106903, -6.576522916555405, -6.479805022478104, -6.484874039888382, -6.580345630645752, -6.6820153295993805, -6.498094707727432, -6.332954704761505, -6.259094387292862, -6.390104025602341, -6.635190904140472, -6.571245521306992, -6.581906765699387, -6.497120201587677, -6.512294411659241, -6.45249280333519, -6.290336906909943, -6.340531051158905, -6.550677269697189, -6.33209627866745, -6.413809835910797, -6.4604847729206085, -6.403372824192047, -6.495608329772949];[0.7161105930805206, 0.6341410584747791, 0.8689825192093849, 1.0166303604841231, 1.0078415058553218, 0.9890305772423743, 0.6898502379655838, 0.8017176993191242, 0.46983388289809225, 0.5116558715701103, 0.6351754121482371, 0.7367897875607013, 0.7367897875607013, 0.8826566621661186, 0.8939708903431892, 0.942911072820425, 0.9202533066272734, 1.1903280302882193, 1.0710265852510927, 1.0108040057122707, 1.0032449036836624, -0.5959560111165046, -2.5654813840985295, -3.496674509346485, -3.4317182332277296, -3.563575319945812, -3.652066451311111, -3.668560642004013, -3.6512205630540846, -3.694672872126102, -3.5847029864788054, -3.603130996227264, -3.6987434729933737, -3.6633472725749012, -3.721678894758224, -3.667920237779617, -3.434948618710041, -3.3532113566994664, -3.359910388290882, -3.4373287037014957, -3.4201335981488223, -3.393115599453449, -3.2598793745040893, -3.3427228465676304, -3.280129006505012, -3.4061361014842984, -3.286050224304199, -3.321752759814262, -3.5371340632438657, -3.7014866217970845, -3.3576116144657133, -2.9920964911580086, -3.127641575038433, -4.056219506263733, -3.8934477880597114, -3.8554300904273986, -4.030908411741256, -3.8377395540475843, -3.9609404683113096, -4.041396291553974, -4.093236887454986, -4.059635835886001, -3.8236046478152272, -3.650271302461624, -3.647629004716873, -3.3992133066058154, -3.371339964866638, -3.352376814186573, -3.3504934206604955, -3.2829856127500534, -3.162434560060501, -3.2504037871956823, -3.1252425804734227, -3.064117383956909, -3.009854471683502, -2.931211446225643, -3.010208711028099, -3.2654658928513527, -3.1374424070119855, -3.040208749473095, -3.429787565767765, -3.4485282137989994, -3.5969185709953306, -3.466985848546028, -3.5476925387978553, -3.583254513144493, -3.627847699820995, -3.56916814148426, -3.835200628638267, -3.7050157785415645, -3.6012904644012447, -3.7342027053236957, -3.7179726183414457, -3.5687949925661084, -3.735025271773338, -3.6747617214918136];[0.005217399913817644, 0.020421299850568175, 0.03707099985331297, 0.05317889992147684, 0.06940049980767071, 0.08649569982662797, 0.10304759978316724, 0.12164489994756877, 0.1367200999520719, 0.15324039990082383, 0.17033329978585243, 0.1889097997918725, 0.2020004999358207, 0.21955599985085428, 0.23630689992569387, 0.2536567999050021, 0.2693273997865617, 0.2868697999510914, 0.3030684997793287, 0.3181659998372197, 0.3358334999065846, 0.3539330998901278, 0.3682977999560535, 0.3870625998824835, 0.40314919990487397, 0.42053879983723164, 0.4364531999453902, 0.4539199999999255, 0.46949129994027317, 0.4875666999723762, 0.5040014998521656, 0.5204328999388963, 0.5362007999792695, 0.553710299776867, 0.5693947998806834, 0.5870606999378651, 0.6027620998211205, 0.6195009998045862, 0.6353114999365062, 0.6521435999311507, 0.6710019998718053, 0.6873400998301804, 0.703375999815762, 0.7216204998549074, 0.7359145998489112, 0.7530793999321759, 0.7692175998818129, 0.7870606000069529, 0.8027752998750657, 0.8198000998236239, 0.8354077998083085, 0.8527319999411702, 0.8692494998686016, 0.8865875999908894, 0.9016910998616368, 0.9210264999419451, 0.9368289997801185, 0.9538015997968614, 0.969684099778533, 0.9875023998320103, 1.0017543998546898, 1.0204649998340756, 1.037109199911356, 1.0553727999795228, 1.0706175998784602, 1.0865205998998135, 1.103239799849689, 1.1202240998391062, 1.137378699844703, 1.1539882000070065, 1.168282900005579, 1.1873555998317897, 1.202278999844566, 1.2199722998775542, 1.2352229999378324, 1.252721199998632, 1.272536600008607, 1.2858336998615414, 1.3020725999958813, 1.3209912998136133, 1.3348336999770254, 1.3535643999930471, 1.3690986998844892, 1.387057299958542, 1.4023037999868393, 1.4192762000020593, 1.4364227999467403, 1.4550400997977704, 1.4690187999513, 1.4857191999908537, 1.5031041998881847, 1.5195933999493718, 1.5376231998670846, 1.553111899876967, 1.5699178997892886, 1.5845102998428047]
S14;10;0;0;1;False;3000;True;;8;-60.71209149112455;eye;L;1.95796799659729;-3.5027696952223777;-60.8;4.01;1.0002762998919934;1.000359300058335;1686139388.6178207;1686139388.6256092;1686139389.3803084;1686139389.8990002;1686139392.896331;1686139393.8969293;[-0.11471596360206604, -0.07643559575080872, -0.2791096568107605, -0.21319034695625305, -0.19685986638069153, -0.26039981842041016, -0.13509848713874817, -0.2350558638572693, -0.1377224624156952, -0.10715094208717346, -0.18803948163986206, -0.2701726257801056, -0.14508193731307983, -0.215916246175766, -0.08620330691337585, 0.033710211515426636, 0.03513374924659729, -0.08946090936660767, -0.1830112338066101, -0.2634405493736267, -0.21426451206207275, -0.2752671241760254, -0.3041478395462036, -0.12912800908088684, 0.952976405620575, 1.6499504446983337, 1.5012468099594116, 1.6084787249565125, 1.7092565894126892, 1.835035264492035, 1.7627326846122742, 1.7047447562217712, 1.6125828623771667, 1.552727460861206, 1.5598485469818115, 1.5780023336410522, 1.601404070854187, 1.7189756035804749, 1.9551967978477478, 1.9420599341392517, 1.7467838525772095, 1.7155113220214844, 1.6426674127578735, 1.6980596780776978, 1.7414090633392334, 1.8564947843551636, 1.8970480561256409, 1.7252779006958008, 1.7256335020065308, 1.6445156335830688, 1.8402390480041504, 1.8246424198150635, 1.77055025100708, 1.8028035163879395, 1.6975772380828857, 1.745139479637146, 1.6070563197135925, 1.6833033561706543, 1.5524466037750244, 1.95796799659729];[0.37755043655633924, 0.1692529745399952, 0.015340076386928558, 0.28379109799861907, 0.4036834672093391, 0.35789960771799084, 0.41207931786775587, 0.5012890130281448, 0.45728895664215086, 0.4513138465583324, 0.4943583391606807, 0.5637709714472293, 0.6224587239325046, 0.42623880654573437, 0.44312221929430956, 0.4239334143698215, 0.5478424921631813, 0.7987633936107158, 0.7775345608592032, 0.9499151788651943, 0.826030683517456, 0.8323096074163913, 0.7566142693161964, 0.7895556919276714, -2.5548283606767654, -3.2372439846396444, -3.357525891065597, -3.482913382351398, -3.5853389784693714, -3.415750358998775, -3.4072309657931323, -3.3322696343064306, -3.246006681025028, -3.3423433944582936, -3.4278108850121494, -3.5361854329705236, -3.732662835717201, -4.012381441891193, -3.917771802842617, -3.307512590289116, -3.2185178339481353, -3.2619720339775085, -3.24403126090765, -3.3114016592502593, -3.3444013863801954, -3.2534847870469092, -3.092928010225296, -3.5227753937244413, -3.4498399078845976, -3.85669829249382, -3.6181231364607807, -3.5112544208765026, -3.629218643903732, -3.5520631715655324, -3.4631831333041188, -3.571028213202953, -3.5674101814627646, -3.7073025763034817, -3.4372763872146606, -3.5027696952223777];[0.005156200146302581, 0.018874600064009428, 0.0369681001175195, 0.05193509999662638, 0.07007110002450645, 0.08497239998541772, 0.10379640012979507, 0.11992279998958111, 0.1381630999967456, 0.15210160007700324, 0.16827150015160441, 0.18523940001614392, 0.20137999998405576, 0.217969800112769, 0.23582340008579195, 0.25288560008630157, 0.26864330004900694, 0.28601630008779466, 0.30317190010100603, 0.31922670011408627, 0.33581920014694333, 0.3532517000567168, 0.3719217001926154, 0.3862997000105679, 0.40318440017290413, 0.41887090005911887, 0.4369873001705855, 0.4532815001439303, 0.4695639000274241, 0.485687900101766, 0.5021442000288516, 0.5184277000371367, 0.538098799996078, 0.55240000016056, 0.5690672001801431, 0.5854778001084924, 0.6019303000066429, 0.6189294001087546, 0.6375417001545429, 0.6541300001554191, 0.6689135001506656, 0.6862103000748903, 0.703529000049457, 0.7194098001345992, 0.7366555000189692, 0.7522971001453698, 0.7686118001583964, 0.7856426001526415, 0.802796000149101, 0.8201387000735849, 0.8383148000575602, 0.8525342000648379, 0.8695586000103503, 0.8854698000941426, 0.9029940001200885, 0.9190387001726776, 0.9360026000067592, 0.9528820000123233, 0.9696109001524746, 0.9866855000145733]
S14;11;0;0;1;False;1000;True;;8;-133.83978215154232;eye;L;-4.260549336671829;-5.205668820440769;-129.3;6.73;0.8845953999552876;0.8846868998371065;1686139394.6660323;1686139394.675538;1686139395.4301102;1686139395.931801;1686139396.912797;1686139397.797931;[0.1367468237876892, 0.21438342332839966, 0.1153416633605957, 0.0969613790512085, 0.11921137571334839, 0.18534699082374573, 0.12739360332489014, 0.038710713386535645, -0.036920249462127686, -0.03196221590042114, -0.010718435049057007, -0.10875171422958374, 0.043749719858169556, 0.15940847992897034, 0.21512973308563232, 0.21760308742523193, 0.2410065233707428, 0.3060617446899414, -0.6349663436412811, -3.095174193382263, -4.1046255230903625, -3.995513677597046, -3.9972158074378967, -4.16545769572258, -4.313789874315262, -4.216103702783585, -4.156796991825104, -4.225593388080597, -4.071356981992722, -4.170025020837784, -4.322346955537796, -4.188054800033569, -4.2082255482673645, -4.198132246732712, -4.150307267904282, -4.229362308979034, -4.018184959888458, -3.983398884534836, -4.041037440299988, -4.0963470339775085, -4.004695892333984, -3.8576145470142365, -3.887342929840088, -3.9400964975357056, -3.8410037755966187, -4.05119189620018, -4.074521154165268, -4.037949711084366, -3.85674649477005, -3.893445909023285, -4.328110754489899, -4.319918900728226, -4.260549336671829];[0.9622937008738517, 1.0203416794538498, 0.8892690248787403, 0.8783039934933184, 0.7927627556025981, 0.7047248236835002, 0.6339371502399445, 0.6902356781065464, 0.6282639630138873, 0.7889757983386516, 0.6715933598577976, 0.7313157811760902, 0.7098761066794395, 0.6629664972424507, 0.7402045413851738, 0.8283880770206451, 0.7433309242129326, 0.6536551080644131, -0.1346339575946331, -3.5433735921978946, -5.315324807167053, -5.751343014836311, -5.7190542876720425, -5.792453688383102, -5.532827134430408, -5.433343237638473, -5.462611475586891, -5.558974032104015, -5.578663310408592, -5.626341278851032, -5.6493725091218945, -5.560300853848457, -5.611753803491592, -5.743346156179904, -5.615885545313358, -4.9349177643656725, -4.830003038048744, -5.015251305699348, -5.040627953410148, -5.069001768529414, -5.254643985629081, -5.31158260256052, -5.498615933954715, -5.578939390182494, -5.646769921481609, -5.657926569879055, -5.613626481592655, -5.638788190484046, -5.39651053994894, -5.443742242455482, -5.497299827635288, -5.55799325555563, -5.205668820440769];[0.0068014999851584435, 0.0190396998077631, 0.03637849981896579, 0.05361770000308752, 0.06871639983728528, 0.0866878000088036, 0.10276099992915988, 0.12027899990789592, 0.13655329984612763, 0.1543599998112768, 0.1699981999117881, 0.18820380000397563, 0.20163599983789027, 0.21960149984806776, 0.23669229983352125, 0.2533250998239964, 0.26883589988574386, 0.28713849978521466, 0.3025185998994857, 0.31886789994314313, 0.3356793997809291, 0.3526104998309165, 0.36944399983622134, 0.3871641999576241, 0.40184840001165867, 0.41961589991115034, 0.4357704999856651, 0.45251979981549084, 0.4693002998828888, 0.4866675999946892, 0.5017641999293119, 0.5190748998429626, 0.5353777999989688, 0.5512882999610156, 0.5684396999422461, 0.5855522998608649, 0.6009802999906242, 0.6187436999753118, 0.6353884998243302, 0.6536642999853939, 0.6688237998168916, 0.6866894999984652, 0.7022512999828905, 0.7193692999426275, 0.7365166998934001, 0.7538836998865008, 0.7697824998758733, 0.7876649999525398, 0.8025925999972969, 0.8200553997885436, 0.835806299932301, 0.8539571999572217, 0.868806199869141]
S14;12;0;0;1;False;1000;True;;8;-162.90803032195222;eye;L;-7.44533959031105;-2.346804141998291;-162.5;7.81;0.9998194999061525;0.9999482999555767;1686139398.6171296;1686139398.625155;1686139399.3805752;1686139399.8813353;1686139400.8623073;1686139401.862632;[-0.3310563266277313, -0.2903496026992798, -0.08992636203765869, -0.062486737966537476, -0.08522483706474304, -0.09046995639801025, -0.22382327914237976, -0.2744426727294922, -0.2862924635410309, -0.2613539397716522, -0.26624175906181335, -0.2616523504257202, -0.22089749574661255, -0.3060866594314575, -0.36961641907691956, -0.3637484312057495, -0.3582405745983124, -0.2605798840522766, -0.15777429938316345, -0.09720712900161743, -0.10561415553092957, -0.321687251329422, -0.3394373059272766, -0.4077201187610626, -0.32701900601387024, -0.13342297077178955, -0.18098464608192444, -0.20860150456428528, -0.21199047565460205, -0.1676173210144043, -3.5513959527015686, -6.800011545419693, -7.065632700920105, -7.389917880296707, -7.446512281894684, -7.322649210691452, -7.236097097396851, -7.0186066925525665, -7.0564504861831665, -9.082234144210815, -8.560283899307251, -8.594157189130783, -8.4714894592762, -8.501879215240479, -8.629770547151566, -8.063902407884598, -7.4091611206531525, -7.514403820037842, -7.682210832834244, -7.669362187385559, -7.780636519193649, -7.752892822027206, -7.909596920013428, -7.858312755823135, -7.670309513807297, -7.463962227106094, -7.757700800895691, -7.314522475004196, -7.497609585523605, -7.44533959031105];[0.8649907082319259, 0.8280237525701523, 0.9143844053149223, 0.7578591495752334, 0.856761261820793, 0.8225264243781566, 0.8839585863053798, 1.0800379425287245, 0.8293581381440162, 0.8175746373832226, 0.9232470072805881, 1.0555774636566637, 1.1281379096210002, 1.2867261998355388, 1.153998642414808, 1.4935521818697453, 1.4189665205776691, 1.1788738712668418, 0.8301343761384486, 0.8696062199771404, 0.5818270929157734, 0.415675288438797, 0.5491169974207878, 0.4285208769142627, 0.6389607936143875, 0.748524123430252, 0.8066669650375843, 1.3146915681660174, 1.2735682882368564, 0.970121318846941, -0.5471983060240745, -2.0651573896408078, -2.5308585852384566, -2.2766452118754383, -2.3305103927850723, -2.2546136677265167, -2.0739087402820586, -2.159502924978733, -2.260203337669372, -3.7792364850640294, -3.93126126229763, -3.850137300789356, -3.9578720748424527, -3.9290948554873464, -3.8822318896651264, -3.8467795908451077, -2.0857492849230765, -2.0667319267988202, -1.9072567775845526, -1.923085981607437, -2.0426474332809446, -2.091725970804691, -1.9737724632024765, -2.0244822666049003, -1.898388187587261, -2.0528018742799756, -1.9818846702575683, -2.0773761257529255, -2.2364604771137238, -2.346804141998291];[0.005505699897184968, 0.019921999890357256, 0.035870099905878305, 0.052717299899086356, 0.06919660000130534, 0.0865052998997271, 0.10200090007856488, 0.12147179991006851, 0.1364116999320686, 0.15328680002130568, 0.16910340008325875, 0.1879179000388831, 0.2019587999675423, 0.2203130000270903, 0.23560029990039766, 0.25341570004820824, 0.2683834000490606, 0.28729590005241334, 0.30278420005925, 0.31970049999654293, 0.33569910004734993, 0.35322639998048544, 0.36969009996391833, 0.3870365999173373, 0.4040971000213176, 0.4234358000103384, 0.4358125999569893, 0.4546956999693066, 0.46977890003472567, 0.487316400045529, 0.5020951998885721, 0.5205947998911142, 0.5366372999269515, 0.5536760000977665, 0.5685807999689132, 0.5854148000944406, 0.6015902999788523, 0.6208206000737846, 0.6377900000661612, 0.6551701000425965, 0.6696172000374645, 0.6869957000017166, 0.7018112000077963, 0.7205751000437886, 0.7356475999113172, 0.753474900033325, 0.7697562999092042, 0.7864244999364018, 0.8030058001168072, 0.8192523000761867, 0.8355817999690771, 0.8530172000173479, 0.8684123998973519, 0.886273599928245, 0.9023335999809206, 0.9217725000344217, 0.9350922000594437, 0.9541885000653565, 0.9683270999230444, 0.9864169999491423]
S14;13;0;0;1;False;3000;True;;8;-26.971320726165445;eye;L;5.506476104259491;-2.4605931311845777;-24.08;6.03;0.8826316001359373;0.8827070000115782;1686139402.6956232;1686139402.7086692;1686139403.4626405;1686139403.9638894;1686139406.962473;1686139407.8448002;[-0.2621840536594391, -0.20741409063339233, -0.3407090902328491, -0.21353575587272644, -0.3323569893836975, -0.5189610421657562, -0.21718746423721313, 0.00409168004989624, -0.4378618597984314, -0.3724725544452667, -0.04291790723800659, -0.3262268304824829, -0.21552610397338867, -0.16499051451683044, -0.1830684244632721, -0.24134796857833862, -0.41420984268188477, -0.5294342935085297, -0.5059040188789368, -0.6231669485569, -0.35315003991127014, -0.2587180733680725, -0.567462682723999, -0.2734851539134979, -0.2052476406097412, 0.03784662485122681, 0.12260770797729492, -0.11597302556037903, 0.19017252326011658, 4.2300350069999695, 6.315960586071014, 5.777861058712006, 5.906356573104858, 5.806984126567841, 5.624320566654205, 5.6069753766059875, 5.509658396244049, 5.421004951000214, 5.605641305446625, 5.708914041519165, 5.80327296257019, 5.878030776977539, 5.834159314632416, 5.834159314632416, 5.755426466464996, 5.678502202033997, 5.68690299987793, 5.638041794300079, 5.656064212322235, 5.762186288833618, 5.7039899826049805, 5.581846594810486, 5.506476104259491];[1.3592110075056552, 0.27690864354372025, 0.9709835954010486, 1.3321573957800865, 0.3967877760529518, 0.6234609313309192, 0.8519109562039374, 1.021140293776989, 0.9317355148494243, 0.8931883491575717, 0.90277676358819, 0.8548734560608863, 0.9430134996771812, 0.7511238746345043, 0.7405250586569309, 0.6236875310540199, 0.7237957589328289, 0.9138694345951079, 0.9285265602171421, 0.7556268744170666, 0.5133069925010204, 0.8316376872360706, 0.9927453629672527, 0.30689071789383887, 0.4376894988119602, 1.001298163086176, 0.753879314661026, 0.811310525983572, 0.9533422239124775, -1.4504329964518545, -2.800636428594589, -2.3998858362436293, -2.585618188977241, -2.5210060670971868, -2.3743005529046055, -2.38141181319952, -2.257310803234577, -2.549215368926525, -2.8991269424557684, -3.1541414514183996, -2.905316676199436, -2.3814994275569914, -2.4426025629043577, -2.4426025629043577, -2.2800010308623313, -2.4376066535711285, -2.8594439417123794, -3.0245862901210785, -2.7712219566106793, -2.764211547374725, -2.7368809103965757, -2.3346768021583557, -2.4605931311845777];[0.0057079000398516655, 0.019458199851214886, 0.037953499937430024, 0.053966599982231855, 0.0716752998996526, 0.08693039999343455, 0.10408129985444248, 0.1198888998478651, 0.13803429994732141, 0.15212460001930594, 0.17092090006917715, 0.18624669988639653, 0.20202089985832572, 0.21859960001893342, 0.2373456999193877, 0.25291589996777475, 0.2715419000014663, 0.28616450005210936, 0.30442900001071393, 0.31927370000630617, 0.33742929995059967, 0.3523639999330044, 0.3699079998768866, 0.3857559999451041, 0.4043139999266714, 0.4203134998679161, 0.43554540001787245, 0.45342559996061027, 0.4709294999483973, 0.48617309983819723, 0.5031884999480098, 0.5198390998411924, 0.5359060000628233, 0.554146199952811, 0.5708775999955833, 0.5857742999214679, 0.6046978000085801, 0.6202495000325143, 0.6370929998811334, 0.653969599865377, 0.6708797998726368, 0.6881349000614136, 0.7053704999852926, 0.7215604998636991, 0.7367499000392854, 0.7523833999875933, 0.7716083000414073, 0.7861480000428855, 0.8035857998766005, 0.8195442999713123, 0.8362906998954713, 0.851821499876678, 0.8706828998401761]
S14;14;0;0;1;False;3000;True;;8;55.07834164150756;eye;L;4.2119163274765015;7.030492463707923;59.07;8.2;0.7983619999140501;0.7984436999540776;1686139408.5850117;1686139408.5917826;1686139409.346199;1686139409.8467314;1686139412.8463144;1686139413.6444366;[0.022545576095581055, -0.12475603818893433, -0.1451142132282257, -0.1513734757900238, -0.07796615362167358, -0.03421643376350403, 0.11386376619338989, -0.04613417387008667, -0.0566544234752655, -0.3431546986103058, -0.2763848900794983, -0.31939736008644104, -0.32453489303588867, -0.2066587209701538, -0.1276908814907074, -0.12650233507156372, -0.13533008098602295, 1.168779969215393, 4.401492595672607, 4.78282630443573, 4.348471760749817, 5.058911085128784, 4.670021414756775, 4.339375615119934, 4.3452951312065125, 4.3271254897117615, 4.279217839241028, 4.315475583076477, 4.238549053668976, 4.371224582195282, 4.466881334781647, 4.325068891048431, 4.409399628639221, 4.506579577922821, 4.417726814746857, 4.417811751365662, 4.444289326667786, 4.416682660579681, 4.457610785961151, 4.345681309700012, 4.3520073890686035, 4.372866690158844, 4.550421595573425, 4.482244670391083, 4.694452583789825, 4.672412097454071, 4.772715449333191, 4.2119163274765015];[1.1134092427790163, 1.0279039330780506, 1.114092193543911, 1.1127637960016727, 1.0242786526679992, 1.0506389133632181, 0.8514309681951999, 0.9194587893784045, 1.007608287781477, 1.1565363071858883, 1.0141119204461573, 0.9513343423604964, 0.9254739247262477, 0.8792727939784526, 0.9801329925656318, 1.2085492953658103, 0.9801720723509788, 1.3033555939793586, 4.812062895298004, 7.236998873949051, 6.428657151013613, 6.072685059159994, 6.250392188876867, 6.500684504583478, 6.796438744291662, 6.937643305957317, 6.774532633647322, 6.885473683476447, 6.778210860863328, 6.46145044863224, 6.39909676015377, 6.447151186689734, 6.5594619199633595, 6.532201248407364, 6.587146323546767, 6.604385236278176, 6.951465889066458, 7.2700770758092395, 7.155908161774277, 7.366842878982424, 7.2568551868200295, 7.0477309036999936, 6.577157341316342, 6.635996370390057, 6.477207796275615, 6.378880062326789, 6.886432241275906, 7.030492463707923];[0.007254899945110083, 0.01726359990425408, 0.034490899881348014, 0.050830099964514375, 0.06695919996127486, 0.08463599998503923, 0.10282750008627772, 0.11760989995673299, 0.13786179991438985, 0.15163509990088642, 0.16866629989817739, 0.18459299998357892, 0.20111089991405606, 0.21786239999346435, 0.2357473000884056, 0.2513703000731766, 0.26838680007494986, 0.2843885999172926, 0.30238220002502203, 0.3189149999525398, 0.33610489987768233, 0.3530870999675244, 0.36943199997767806, 0.38466629991307855, 0.4024147999007255, 0.4181927000172436, 0.43485040008090436, 0.450783200096339, 0.46926359995268285, 0.48439379991032183, 0.5020858000498265, 0.5174569999799132, 0.5358426999300718, 0.5504759000614285, 0.5705313999205828, 0.5842553998809308, 0.602146300021559, 0.6169783000368625, 0.6373397998977453, 0.6509569999761879, 0.6684320999775082, 0.6833718998823315, 0.7021139999851584, 0.717780299950391, 0.7342201001010835, 0.7502536999527365, 0.7679375999141484, 0.7833483000285923]
S14;15;0;0;1;False;1000;True;;8;-82.2132856519983;eye;L;1.4749810099601746;-6.035547602176666;-76.27;6.21;0.8161092000082135;0.8161801998503506;1686139414.3939862;1686139414.4079983;1686139415.163521;1686139415.6635675;1686139416.6445146;1686139417.4609528;[-0.01900598406791687, -0.06847420334815979, 0.07473120093345642, 0.04345130920410156, 0.05128586292266846, 0.02036440372467041, 0.02026417851448059, 0.0022247731685638428, -0.04541221261024475, -0.022849082946777344, -0.1348685920238495, -0.10311871767044067, 0.07617908716201782, 0.11817967891693115, 0.06918030977249146, 0.08771970868110657, 0.18205711245536804, 0.23495110869407654, 0.11380317807197571, 0.12506747245788574, 0.32324159145355225, 1.2475037574768066, 1.2360101342201233, 1.3552611470222473, 1.3268130421638489, 1.229447364807129, 1.2098791003227234, 1.193137526512146, 1.3058065176010132, 1.18049556016922, 1.2520948648452759, 1.1071510910987854, 1.0017855167388916, 1.2406873106956482, 1.328145980834961, 1.375987946987152, 1.3320508003234863, 1.316951334476471, 1.077399492263794, 1.3387596607208252, 1.3570448160171509, 1.2305085062980652, 1.1566578149795532, 1.3144338130950928, 1.2170602083206177, 1.3090760111808777, 1.2877025604248047, 1.5745142698287964, 1.4749810099601746];[0.7146876476705074, 0.4953413218259811, 0.6770043343305587, 0.8136701256036758, 0.7329177372157574, 0.8991297371685504, 0.5795793749392032, 0.4805395379662513, 0.4628010973334312, 0.29917498156428335, 0.44424796923995014, 0.4112454056739807, 0.1903377793729305, 0.3731779128313064, 0.3079153016209602, 0.7043100737035274, 0.663491553068161, 0.27181598022580145, 0.5694945842027663, 0.5208566397428512, -1.5754057377576827, -5.027720908820629, -6.803693559765815, -7.0877815380692475, -6.677077576518058, -6.608155332505703, -6.539033277332782, -6.3622861236333845, -6.479707641899585, -6.543702681362628, -6.361850573122501, -6.148290261626244, -6.812088780105113, -6.723981513082981, -6.1214922443032265, -6.0466481521725655, -6.006819547712802, -6.10000844746828, -6.2024901419878, -6.4409890294075005, -6.5318470090627665, -6.50864937454462, -6.145743772387505, -6.025296722352504, -5.990261064469814, -5.971892935037612, -6.24498373568058, -6.101097638905048, -6.035547602176666];[0.005633099935948849, 0.02043549995869398, 0.03601639997214079, 0.05288450000807643, 0.06854519993066788, 0.08736120001412928, 0.10261589987203479, 0.12072999984957278, 0.13602239987812936, 0.15440579992718995, 0.16973700001835823, 0.18924469989724457, 0.20263279997743666, 0.2218013999518007, 0.2367183999158442, 0.25339869991876185, 0.26976850000210106, 0.2892555999569595, 0.3036568998359144, 0.3222103000152856, 0.33657879987731576, 0.35485509992577136, 0.3700329998973757, 0.38980249990709126, 0.4037039999384433, 0.42049449984915555, 0.43485530000180006, 0.4534681998193264, 0.4689966000150889, 0.48820929997600615, 0.5035884999670088, 0.5208028999622911, 0.5367185999639332, 0.5548241999931633, 0.5701575998682529, 0.5866419998928905, 0.6029274999164045, 0.6213142999913543, 0.6363696998450905, 0.6543641998432577, 0.6693303999491036, 0.6873404998332262, 0.7035293998196721, 0.7199531998485327, 0.7357455999590456, 0.7516305998433381, 0.767714099958539, 0.786622199928388, 0.8021902998443693]
S14;16;0;0;1;False;3000;True;;8;-54.38529992265926;eye;L;4.174926996231079;-5.527043956518173;-52.93;6.93;1.882121899863705;1.8821849999949336;1686139418.2112417;1686139418.224886;1686139418.979157;1686139419.4796991;1686139422.477305;1686139424.3595514;[0.17934706807136536, 0.20850864052772522, 0.2755666673183441, 0.1924493908882141, 0.1239134669303894, -0.027840524911880493, 0.026943594217300415, 0.07705846428871155, 0.077359139919281, 0.015450537204742432, -0.09642457962036133, -0.0488300621509552, 0.05271732807159424, 0.1161395013332367, 0.037438929080963135, 0.173370361328125, 0.15483605861663818, 0.20579802989959717, 0.11967682838439941, 0.048808544874191284, 0.18342459201812744, 2.325400412082672, 3.329686462879181, 4.38618928194046, 4.462349116802216, 4.293728411197662, 4.354273498058319, 4.489293277263641, 4.56320059299469, 4.625414967536926, 4.734455466270447, 4.691847860813141, 4.7362425327301025, 4.663789331912994, 4.484047591686249, 4.656518757343292, 4.603829741477966, 4.598365485668182, 4.666628479957581, 4.599950969219208, 4.67596697807312, 4.583112001419067, 4.7080594301223755, 4.828339874744415, 4.696068644523621, 4.590741574764252, 4.632751226425171, 4.583303391933441, 4.580467641353607, 4.684956669807434, 4.6960437297821045, 4.770884215831757, 4.683646380901337, 4.615461528301239, 4.533519208431244, 4.527272403240204, 4.619135320186615, 4.697763979434967, 4.628754675388336, 4.5423243045806885, 4.810344636440277, 4.686610102653503, 4.651522219181061, 4.549950480461121, 4.431667745113373, 4.531863510608673, 4.545634567737579, 4.553529143333435, 4.53111720085144, 4.502502620220184, 4.552046716213226, 4.524850010871887, 4.334222793579102, 4.278014004230499, 4.320524215698242, 4.33367919921875, 4.389574289321899, 4.411386013031006, 4.4027281403541565, 4.389848351478577, 4.5148138999938965, 4.576539039611816, 4.399998843669891, 4.32566910982132, 4.348065197467804, 4.368395626544952, 4.472446382045746, 4.559814453125, 4.524451375007629, 4.488003373146057, 4.537864565849304, 4.614578187465668, 4.490013539791107, 4.363553106784821, 4.291355848312378, 4.294723868370056, 4.441047012805939, 4.541250705718994, 4.636049032211304, 4.619270086288452, 4.554546117782593, 4.497933030128479, 4.541271090507507, 4.558894872665405, 4.658916234970093, 4.718164622783661, 4.589600026607513, 4.491678297519684, 4.447854399681091, 4.466199576854706, 4.447304010391235, 4.269832909107208, 4.174926996231079];[0.606035128980875, 0.7084960229694843, 0.4351672768592834, 0.15945560932159422, 0.39531282931566236, 0.8669008903205394, 0.8922227002680301, 0.762609864771366, 0.6041564628481865, 0.8143102146685123, 0.827198664844036, 0.7343813382089137, 0.6644729599356651, 0.8362295620143413, 0.7592269420623778, 0.40922365710139275, -0.04960138723254204, -0.14550286531448364, -0.11426614075899123, -0.006469280272722244, 0.3077236846089363, -3.2013523533940313, -5.003781388700008, -5.673272949457168, -5.798891767859459, -5.841338717937469, -5.784876622259617, -5.471916246414184, -5.161683261394501, -5.018375797569751, -4.936881838738918, -4.859276318550109, -4.996710468828677, -5.122363324463367, -5.138800786435604, -5.1170913353562355, -5.219981476664543, -5.105230620503425, -5.075644071400165, -5.042600852251052, -5.078068278729916, -4.965737847983837, -5.032099105417728, -4.962931036949158, -5.125384443998336, -5.017832462489604, -5.391036848723888, -5.303246632218361, -4.998405396938324, -5.110658298432827, -5.056099766492843, -5.1767970532178875, -5.393353271484375, -5.624155962467193, -5.739644922316074, -5.755956320464611, -5.562232781946658, -5.234157353639603, -5.597708402574062, -5.668711329996586, -5.074353177845477, -5.009772571921348, -5.008977109193801, -5.006036670506, -5.39230063855648, -5.641177730262279, -5.11732455343008, -4.995567700266838, -5.265224522352218, -5.094841700792312, -5.070419356226921, -5.117291146516799, -5.086348780989646, -5.251717413961887, -5.237446989119053, -5.220437827706337, -5.239960701763629, -5.318728530406951, -5.3132548391819, -5.319851128757, -5.563076148927212, -5.647559711337089, -5.25977856516838, -5.434482224285603, -5.6399946212768555, -5.825689154863357, -5.836715327203273, -5.714336349070072, -5.64652157574892, -5.418557842075824, -5.236013013124466, -5.230056497454643, -5.256877206265926, -5.281398510932922, -5.290015603601932, -5.152722014486789, -5.209375727176666, -5.333756598830223, -5.409379135072231, -5.173123553395271, -5.154376602172851, -5.1845247656106945, -5.279614077508449, -5.412154430150985, -5.406408441066741, -5.656916168332099, -5.387085378170013, -5.345911672711372, -5.189981438219547, -5.37290256768465, -5.387115633487701, -5.41008950471878, -5.527043956518173];[0.00593779981136322, 0.019902899861335754, 0.03687239997088909, 0.05403959983959794, 0.07025699992664158, 0.08647039998322725, 0.10252259997650981, 0.12046889984048903, 0.13777989987283945, 0.15428119990974665, 0.16970499977469444, 0.1873235998209566, 0.2023785999044776, 0.21866539982147515, 0.23739199992269278, 0.25287959980778396, 0.2716785999946296, 0.28667789977043867, 0.30313219991512597, 0.31974149984307587, 0.33613559999503195, 0.35402629990130663, 0.3701416999101639, 0.38710599998012185, 0.40395719977095723, 0.4195837997831404, 0.4361723999027163, 0.45389979984611273, 0.4707197998650372, 0.4867145998869091, 0.504941999912262, 0.5204767999239266, 0.5371397999115288, 0.5523765999823809, 0.56940559996292, 0.586044600000605, 0.6026463999878615, 0.6188368999864906, 0.6357907999772578, 0.6531620998866856, 0.6694273999892175, 0.6864785999059677, 0.7030125998426229, 0.7189158999826759, 0.735688499873504, 0.7546916999854147, 0.7699443998280913, 0.7871472998522222, 0.8032807998824865, 0.8194255998823792, 0.8380298998672515, 0.8524431998375803, 0.871820799773559, 0.8865791999269277, 0.9046224998310208, 0.9191275998018682, 0.9366804999299347, 0.9530901999678463, 0.9703567998949438, 0.9862766999285668, 1.0032323999330401, 1.0195196999702603, 1.0361377999652177, 1.052388699958101, 1.0707935998216271, 1.0857928998302668, 1.102598899975419, 1.119424399919808, 1.1352386998478323, 1.154341499786824, 1.1696513998322189, 1.1857330999337137, 1.2026649999897927, 1.2188421997707337, 1.2364958999678493, 1.2523743999190629, 1.2700099998619407, 1.2874033998232335, 1.3032396999187768, 1.3187909999396652, 1.3359838998876512, 1.3520581999327987, 1.3691311997827142, 1.3857740999665111, 1.4029056997969747, 1.419206599937752, 1.4364916998893023, 1.4521390998270363, 1.4687790998723358, 1.4855446999426931, 1.5022383998148143, 1.51991629996337, 1.5361833998467773, 1.5520969999488443, 1.5688408999703825, 1.5851240998599678, 1.6031144999433309, 1.6177937998436391, 1.635984799824655, 1.650435899849981, 1.6684277998283505, 1.6851875998545438, 1.7028433999512345, 1.7181095997802913, 1.7361908999737352, 1.7517029999289662, 1.7700873999856412, 1.7864103999454528, 1.8050500999670476, 1.8202104999218136, 1.8377418997697532, 1.8526866999454796, 1.869869199814275]
S14;17;0;0;1;False;1000;True;;8;55.303899724133316;eye;L;4.351595163345337;6.3838234975934025;55.72;7.73;2.5335618001408875;2.533612299943343;1686139425.1702569;1686139425.1742473;1686139425.9286044;1686139426.4297435;1686139427.4109452;1686139429.943966;[-0.06267699599266052, 0.0563226044178009, 0.08349665999412537, -0.0054427385330200195, -0.06842437386512756, -0.06708520650863647, 0.0137082040309906, -0.09064832329750061, -0.05578240752220154, -0.10463228821754456, -0.051063328981399536, 0.015077948570251465, -0.07971584796905518, 0.04849937558174133, 0.12006866931915283, 0.11484676599502563, -0.0001653432846069336, -0.005783051252365112, 0.0016047358512878418, 0.03506919741630554, 0.07092490792274475, 0.02492097020149231, 1.591661274433136, 3.5352251529693604, 4.002945065498352, 3.6776785850524902, 3.826958656311035, 3.7481261491775513, 3.673277735710144, 3.7853872776031494, 3.8372665643692017, 3.6273961067199707, 3.903354048728943, 3.724522829055786, 3.797137975692749, 3.6225377321243286, 3.732839822769165, 3.6894723176956177, 3.7923883199691772, 4.032636642456055, 4.02359938621521, 3.9804515838623047, 4.348039150238037, 4.216770172119141, 4.10363233089447, 4.121029615402222, 3.7935434579849243, 4.061195731163025, 3.960426926612854, 3.9636998176574707, 3.8423423767089844, 3.970644235610962, 4.008528232574463, 3.8553342819213867, 3.853411316871643, 3.873612642288208, 3.611527681350708, 3.62012779712677, 3.728210210800171, 3.9011683464050293, 3.7614442110061646, 3.9900392293930054, 3.9409821033477783, 3.6496676206588745, 3.677132725715637, 3.620601177215576, 3.599190354347229, 3.6581703424453735, 3.725218176841736, 3.593878984451294, 3.7209237813949585, 3.762212038040161, 3.7749276161193848, 3.6344220638275146, 3.519836902618408, 3.6366145610809326, 3.509997844696045, 3.348833441734314, 3.6730852127075195, 3.7901731729507446, 3.8329766988754272, 3.7051414251327515, 3.718276023864746, 3.868939995765686, 3.6754634380340576, 3.7266111373901367, 3.6244176626205444, 3.674281120300293, 3.583056926727295, 3.669447660446167, 3.727354049682617, 3.671357035636902, 3.6340460777282715, 3.8169270753860474, 3.692387342453003, 3.7081176042556763, 3.7734485864639282, 3.749265432357788, 3.7835843563079834, 3.78835666179657, 3.731621265411377, 3.831504464149475, 3.685599207878113, 3.8498575687408447, 3.8957074880599976, 3.9058092832565308, 3.6393076181411743, 3.71333384513855, 3.5743050575256348, 3.558543086051941, 3.536441445350647, 3.7605223655700684, 3.9434690475463867, 4.301509737968445, 4.161001920700073, 4.052568435668945, 4.262604236602783, 4.021223425865173, 4.036142826080322, 3.96614146232605, 3.968861699104309, 3.867712378501892, 3.8037177324295044, 3.9325495958328247, 3.696192502975464, 3.580289125442505, 3.4998303651809692, 3.5647151470184326, 3.6259533166885376, 3.8761924505233765, 3.9398382902145386, 3.8772162199020386, 3.9975589513778687, 3.8653409481048584, 3.958966016769409, 3.7870248556137085, 3.7496527433395386, 3.8085625171661377, 3.8407682180404663, 3.7317458391189575, 3.7248172760009766, 3.767493963241577, 3.7249350547790527, 3.7159295082092285, 3.8569695949554443, 3.8650827407836914, 4.127643346786499, 4.293822407722473, 4.110723972320557, 4.16025447845459, 4.229066729545593, 4.351595163345337];[0.7664475627243519, 0.8049449332058429, 0.9129696540534495, 0.9286478966474533, 0.9342640399932861, 0.859958555549383, 0.7670435294508934, 0.7778361685574054, 0.7704450465738772, 0.8606938228011131, 0.756274527311325, 0.7970486104488372, 0.9371953390538692, 1.2391049601137638, 1.1388246551156043, 1.1112210899591446, 1.0328995272517203, 1.1002128817141055, 1.1431861482560635, 1.0442373923957347, 0.8868719212710857, 1.1135665073990821, 1.8388044364750384, 5.817899986356497, 5.872177711129188, 5.96441955640912, 6.3951033733785145, 6.261856117844581, 5.872366491705179, 6.455502127110957, 5.83103205487132, 5.373134209960699, 6.49240668118, 6.573726041615009, 6.539892087131738, 6.559448683261871, 6.653412875533103, 6.388150638341903, 6.443530160933733, 6.3611651010811325, 6.755310894548892, 6.415197631716728, 6.43482135683298, 6.59114932268858, 6.5403178676962845, 6.652455420792102, 6.227012076973915, 6.341764824092388, 6.01922769472003, 5.7257848352193825, 6.044892083108425, 6.246487046778202, 6.328964618593454, 6.463035701215267, 6.50965378805995, 6.479173131287098, 6.213659396767616, 5.972613704949617, 5.883872336894274, 6.53312309011817, 5.766250377148389, 5.97430169954896, 6.022428140044212, 6.096411531418561, 5.8174133799970145, 5.737885071337223, 6.3828348420560355, 6.059152107685804, 6.8117918998003, 6.801822772622108, 6.626614543050527, 6.294744593650102, 6.009178201854229, 6.049000503122806, 5.943216566741466, 6.063207580894232, 6.164694631844759, 6.099758210778236, 5.702791108936071, 5.773948464542627, 5.796907208114862, 6.3319863684475415, 6.393217458575964, 6.2121844500303265, 6.72566635608673, 6.240619090944528, 6.66837160885334, 6.519367635995149, 6.573415924608707, 6.641596913337707, 6.624967204034328, 6.445741635560989, 6.679467116296291, 6.655352367460727, 6.503001400083303, 6.208291283994913, 6.164339131861925, 6.036186745762825, 5.856393574923277, 6.12601541429758, 5.772607775777578, 5.580974375456571, 5.957282453030348, 5.685007915645837, 5.919827315211296, 6.6975973002612585, 6.872973825037479, 6.848740891367196, 6.524681541323662, 6.282079906761646, 6.612406519800424, 6.651633169502019, 6.883266305923462, 6.681091133505105, 6.362082530558109, 6.522650653123855, 6.6352382540702814, 6.845219298452139, 6.9323451586067675, 6.828671845793724, 6.985037945955991, 6.81703111231327, 6.005575297772884, 6.222994422912597, 6.453566101938486, 6.265834692120552, 6.259146375954151, 6.086315079778433, 6.192912758141755, 6.082402689009904, 6.259459959715604, 6.262821766734123, 6.114053533226251, 5.961517567187547, 6.256003919988871, 6.287861508876085, 6.347246079146862, 6.437228860706091, 6.361932514607906, 6.118003743141889, 6.116996808350086, 6.057150844484568, 6.248549766093492, 5.751228611916304, 5.756455218046903, 5.857853709161281, 6.251986581087112, 6.303951980173587, 6.553451512008905, 6.489945285022259, 6.528302724659443, 6.3838234975934025];[0.005794900003820658, 0.017794699873775244, 0.03359230002388358, 0.05070789996534586, 0.06758259981870651, 0.08362439996562898, 0.09960379987023771, 0.11766599980182946, 0.13380399998277426, 0.15047809993848205, 0.1675838998053223, 0.18377719982527196, 0.2004395998083055, 0.21792079997248948, 0.23378259991295636, 0.2508921998087317, 0.26725619984790683, 0.28422959987074137, 0.30054219998419285, 0.31732279993593693, 0.3336067998316139, 0.35068079992197454, 0.3671950998250395, 0.38419289980083704, 0.4001754999626428, 0.41827579983510077, 0.43341369996778667, 0.45100619993172586, 0.4669185997918248, 0.4841877999715507, 0.5001167999580503, 0.5179951000027359, 0.5339296997990459, 0.5513909999281168, 0.5674201999790967, 0.584347500000149, 0.6006871999707073, 0.6166494998615235, 0.6333233998157084, 0.651419699890539, 0.6673651998862624, 0.6836404998321086, 0.7006084998138249, 0.7178719998337328, 0.7337673997972161, 0.7502828999422491, 0.766936199972406, 0.7841698999982327, 0.8002983999904245, 0.817215999821201, 0.8338883998803794, 0.8509493998717517, 0.8674316999968141, 0.8842817998956889, 0.8998585999943316, 0.9169528998900205, 0.9337156999390572, 0.950738999992609, 0.9677654998376966, 0.9846504998859018, 1.000297199934721, 1.0170715998392552, 1.033626499818638, 1.0503748999908566, 1.0669201000127941, 1.0843364999163896, 1.1004105999600142, 1.1171771998051554, 1.1338716999161988, 1.1509724999777973, 1.1669397000223398, 1.18428559997119, 1.20003980002366, 1.2170586998108774, 1.2336696998681873, 1.2506944998167455, 1.2666871999390423, 1.2840799998957664, 1.300732099916786, 1.3178288999479264, 1.3338674998376518, 1.3507972999941558, 1.3667961999308318, 1.3837758998852223, 1.3999417999293655, 1.417218199931085, 1.4330508999992162, 1.4509830998722464, 1.466608899878338, 1.483923199819401, 1.5009553998243064, 1.5179880999494344, 1.535118700005114, 1.552067499840632, 1.5680744999554008, 1.58508969983086, 1.6000173999927938, 1.6181024999823421, 1.634624999947846, 1.6553311999887228, 1.6707950998097658, 1.6875439998693764, 1.7033183998428285, 1.721013299888, 1.7340251000132412, 1.751262699952349, 1.7681663997936994, 1.788315299898386, 1.804271899862215, 1.8208572999574244, 1.838614499894902, 1.8563292999751866, 1.8716025999747217, 1.8880680999718606, 1.9049221000168473, 1.9236889998428524, 1.936173099791631, 1.9533134999219328, 1.9700085998047143, 1.9898275998421013, 2.003891399828717, 2.0222865999676287, 2.0385237999726087, 2.0564569998532534, 2.0693763999734074, 2.08815379999578, 2.1034907998982817, 2.1231930998619646, 2.1365774997975677, 2.154844000004232, 2.1698337998241186, 2.18733450002037, 2.2035913998261094, 2.220754500012845, 2.237896699924022, 2.253998399944976, 2.2685352999251336, 2.2870170997921377, 2.3064782000146806, 2.31896339985542, 2.335349899949506, 2.3538257000036538, 2.3705762999597937, 2.3875733998138458, 2.4039802998304367, 2.4199432998429984, 2.4348628998268396, 2.453442799858749, 2.469877899857238, 2.486626299796626, 2.50322479987517, 2.5207222998142242]
