subj;trial;block;prior;kappa;ct;delay;fix;keypressed;R;T_Angle;resp_mod;choice_x;choice_y;init_resp_angle;choiceAngle;choiceR;RT;MT;ts_b;ts_f;ts_p;ts_d;ts_r;ts_e;m_pos_x;m_pos_y;m_clock
S15;0;0;0;1;False;3000;False;;8;119.65439167881848;drag;L;nan;nan;nan;nan;0.003655300009995699;0.0037263999693095684;1686212178.7320893;1686212178.7460897;1686212179.5035958;1686212180.1698842;1686212183.1532066;1686212183.157785;[];[];[]
S15;0;0;0;1;False;3000;False;;8;-55.04140838019965;drag;L;nan;nan;nan;nan;0.002505300100892782;0.002604300156235695;1686212183.7225451;1686212183.731458;1686212184.487117;1686212184.9697735;1686212184.9709928;1686212184.9737196;[];[];[]
S15;0;0;0;1;False;3000;True;;8;123.57419523437906;drag;L;-5.41422;6.491395;129.83;8.45;3.447492699837312;3.447613399941474;1686212185.5895858;1686212185.5965917;1686212186.3533897;1686212186.8528442;1686212189.8526702;1686212193.2998476;[0.0, 0.0, 0.0, 0.0, 0.0, 0.0, 0.0, 0.0, 0.0, 0.0, 0.0, 0.0, 0.0, 0.0, 0.0, 0.0, 0.0, 0.0, 0.0, 0.0, 0.0, 0.0, 0.0, 0.0, 0.0, 0.0, 0.0, 0.0, 0.0, 0.0, 0.0, 0.0, 0.0, 0.0, 0.0, 0.0, 0.0, 0.0, 0.0, 0.0, 0.0, 0.0, 0.0, 0.0, 0.0, 0.0, 0.0, 0.0, 0.0, 0.0, 0.0, 0.0, 0.0, 0.0, 0.0, 0.0, 0.0, 0.0, 0.0, 0.0, 0.0, 0.0, 0.0, 0.0, 0.0, 0.0, 0.0, 0.0, 0.0, 0.0, 0.0, 0.0, 0.0, 0.0, 0.0, 0.0, 0.0, 0.0, 0.0, 0.0, 0.0, 0.0, 0.0, 0.0, 0.0, 0.0, 0.0, 0.0, 0.0, 0.0, 0.0, 0.0, 0.0, 0.0, 0.0, 0.0, 0.0, 0.0, 0.0, 0.0, 0.0, 0.0, 0.0, 0.0, 0.0, 0.0, 0.0, 0.0, 0.0, 0.0, 0.0, 0.0, 0.0, 0.0, 0.0, 0.0, 0.0566934, 0.14173351, 0.2267736, 0.28346702, 0.39685383, 0.4535472, 0.59528077, 0.6803208, 0.76536095, 0.79370767, 0.85040104, 0.85040104, 0.87874776, 0.87874776, 0.87874776, 0.87874776, 0.85040104, 0.79370767, 0.7086675, 0.42520052, -0.36850712, -0.59528077, -0.79370767, -0.93544114, -1.0771747, -1.5307219, -1.8425356, -2.1543493, -2.3244295, -2.4094696, -2.5512033, -2.7212832, -2.9764037, -3.3449106, -3.4866443, -3.6283777, -3.6567245, -3.7417645, -3.8834982, -3.996885, -4.1953115, -4.3086987, -4.4504323, -4.5921655, -4.6772056, -4.818939, -4.9039793, -4.960673, -5.045713, -5.130753, -5.1874466, -5.215793, -5.2724867, -5.300833, -5.300833, -5.32918, -5.32918, -5.3575263, -5.3858733, -5.3858733, -5.3858733, -5.3858733, -5.41422, -5.41422, -5.41422, -5.41422, -5.41422, -5.41422, -5.41422, -5.41422, -5.41422, -5.41422, -5.41422, -5.41422, -5.41422, -5.41422, -5.41422, -5.41422, -5.41422, -5.41422, -5.41422, -5.41422, -5.41422, -5.41422, -5.41422, -5.41422, -5.41422, -5.41422, -5.41422, -5.41422, -5.41422];[0.0, 0.0, 0.0, 0.0, 0.0, 0.0, 0.0, 0.0, 0.0, 0.0, 0.0, 0.0, 0.0, 0.0, 0.0, 0.0, 0.0, 0.0, 0.0, 0.0, 0.0, 0.0, 0.0, 0.0, 0.0, 0.0, 0.0, 0.0, 0.0, 0.0, 0.0, 0.0, 0.0, 0.0, 0.0, 0.0, 0.0, 0.0, 0.0, 0.0, 0.0, 0.0, 0.0, 0.0, 0.0, 0.0, 0.0, 0.0, 0.0, 0.0, 0.0, 0.0, 0.0, 0.0, 0.0, 0.0, 0.0, 0.0, 0.0, 0.0, 0.0, 0.0, 0.0, 0.0, 0.0, 0.0, 0.0, 0.0, 0.0, 0.0, 0.0, 0.0, 0.0, 0.0, 0.0, 0.0, 0.0, 0.0, 0.0, 0.0, 0.0, 0.0, 0.0, 0.0, 0.0, 0.0, 0.0, 0.0, 0.0, 0.0, 0.0, 0.0, 0.0, 0.0, 0.0, 0.0, 0.0, 0.0, 0.0, 0.0, 0.0, 0.0, 0.0, 0.0, 0.0, 0.0, 0.0, 0.0, 0.0, 0.0, 0.0, 0.0, 0.0, 0.0, 0.0, 0.0, 0.3401604, 0.6236274, 0.87874776, 1.0488279, 1.2472548, 1.4456817, 1.7008021, 1.8708823, 2.0693092, 2.1543493, 2.211043, 2.2677362, 2.3244295, 2.3244295, 2.381123, 2.4094696, 2.4378164, 2.466163, 2.5228565, 2.6929367, 3.2315238, 3.4016042, 3.5716846, 3.6850712, 3.798458, 4.0535784, 4.1953115, 4.337045, 4.422086, 4.4504323, 4.5354724, 4.563819, 4.648859, 4.733899, 4.733899, 4.762246, 4.7905927, 4.7905927, 4.847286, 4.875633, 4.932326, 5.017366, 5.0740595, 5.1874466, 5.300833, 5.4425664, 5.5559535, 5.6409936, 5.697687, 5.811074, 5.8677673, 5.896114, 5.9528074, 6.0095005, 6.0661945, 6.1228876, 6.1795807, 6.2079277, 6.264621, 6.292968, 6.3496614, 6.4063544, 6.434701, 6.4630475, 6.491395, 6.5197415, 6.5197415, 6.5197415, 6.5197415, 6.5197415, 6.5197415, 6.491395, 6.491395, 6.491395, 6.491395, 6.491395, 6.491395, 6.491395, 6.491395, 6.491395, 6.491395, 6.491395, 6.491395, 6.491395, 6.491395, 6.491395, 6.491395, 6.491395, 6.491395, 6.491395, 6.491395];[0.004175700014457107, 0.01649800012819469, 0.035058600129559636, 0.05013899994082749, 0.06705370009876788, 0.08360809995792806, 0.1017291999887675, 0.11682939995080233, 0.13539499999023974, 0.1505865000654012, 0.1686319001019001, 0.18467680015601218, 0.20012450008653104, 0.2173725999891758, 0.23560180002823472, 0.2505392001476139, 0.2662762999534607, 0.28185199992731214, 0.30047370004467666, 0.3179864000994712, 0.3346581000369042, 0.3508530000690371, 0.36748669994995, 0.3842732000630349, 0.4019931999500841, 0.4175555999390781, 0.4346764001529664, 0.45000099996104836, 0.4679733000230044, 0.4842825001105666, 0.5015283001121134, 0.5184540001209825, 0.5348946999292821, 0.5507938000373542, 0.5681565999984741, 0.5833988001104444, 0.6020810001064092, 0.6167161001358181, 0.6352965000551194, 0.6510753000620753, 0.667704600142315, 0.6829338001552969, 0.7029031000565737, 0.7170127001591027, 0.7349529999773949, 0.7501577001530677, 0.7686731000430882, 0.7837698999792337, 0.8021947999950498, 0.8166972999460995, 0.8339450999628752, 0.8519514000508934, 0.8678107000887394, 0.8836829999927431, 0.9016339001245797, 0.9180737000424415, 0.9345794001128525, 0.9510860000737011, 0.9679473000578582, 0.9841829999350011, 1.001630200073123, 1.0178217999637127, 1.0340073001571, 1.0509347999468446, 1.06753270002082, 1.0846128000412136, 1.1016719001345336, 1.1164998000022024, 1.1354356999509037, 1.1505754000972956, 1.168294900096953, 1.183683899929747, 1.2023179000243545, 1.2163219000212848, 1.233906100038439, 1.2519525000825524, 1.2680967999622226, 1.2845620000734925, 1.3023431000765413, 1.3165333000943065, 1.3350921999663115, 1.3492479999549687, 1.3674087000545114, 1.383400599937886, 1.4005072000436485, 1.4165562000125647, 1.4348142000380903, 1.4501374000683427, 1.4662212999537587, 1.4841056000441313, 1.500019900035113, 1.5162416000384837, 1.5344438999891281, 1.5504638999700546, 1.5680156000889838, 1.5828597999643534, 1.6010317001491785, 1.6164830999914557, 1.6329695000313222, 1.6511715000960976, 1.6684965000022203, 1.6834275000728667, 1.701890300028026, 1.7176336001139134, 1.7358481001574546, 1.7499621000606567, 1.7671922999434173, 1.7830994001124054, 1.8012790000066161, 1.8163519001100212, 1.8342671999707818, 1.8508777001406997, 1.867479900131002, 1.8830433001276106, 1.9003492000047117, 1.9169652999844402, 1.9345837000291795, 1.9506194000132382, 1.9680574000813067, 1.9825091999955475, 2.000563400099054, 2.016758300131187, 2.0342250999528915, 2.0495160999707878, 2.0684440000914037, 2.0823723999783397, 2.0992447999306023, 2.11613480001688, 2.132681200047955, 2.149034700123593, 2.16646259999834, 2.1834822001401335, 2.2007464999333024, 2.216545999981463, 2.234429700067267, 2.249481000006199, 2.2672466000076383, 2.283965199952945, 2.2996698000933975, 2.315566200064495, 2.332650600001216, 2.348590499954298, 2.366314999992028, 2.3823359000962228, 2.400823400123045, 2.4157606000080705, 2.4331698999740183, 2.4498710001353174, 2.4669604001101106, 2.482332899933681, 2.5016698001418263, 2.5168322999961674, 2.534585800021887, 2.549537400016561, 2.5669780999887735, 2.5830535001587123, 2.601218600058928, 2.6163218000438064, 2.6367146000266075, 2.6512045001145452, 2.6673926000948995, 2.687095500063151, 2.7011663001030684, 2.716449399944395, 2.7318792000878602, 2.7490065000019968, 2.7680544999893755, 2.782231100136414, 2.802147600101307, 2.8169206001330167, 2.833986100042239, 2.8497433001175523, 2.868832000065595, 2.882503499975428, 2.9003133000805974, 2.91638209996745, 2.9344742000102997, 2.9495864999480546, 2.9668086001183838, 2.983308600028977, 3.002296700142324, 3.0162627999670804, 3.035086499992758, 3.0493594999425113, 3.0666205999441445, 3.0838578001130372, 3.1004945000167936, 3.1170950001105666, 3.1344519001431763, 3.1496248999610543, 3.1684898999519646, 3.1834323999937624, 3.201460500014946, 3.2172596000600606, 3.234658000059426, 3.250077100005001, 3.267842800123617, 3.2834143000654876, 3.3018474001437426, 3.317310400074348, 3.335983700118959, 3.349714000010863, 3.366490999935195, 3.3830073000863194, 3.3988155000843108, 3.415468899998814, 3.4350970999803394]
S15;1;0;0;1;False;1000;True;;8;-130.43650801526562;drag;L;-4.4504323;-5.3575263;-129.72;6.96;2.8160288000945;2.8161635000724345;1686212194.1363494;1686212194.1465352;1686212194.9020877;1686212195.4040284;1686212196.3841994;1686212199.2006571;[0.0, 0.0, 0.0, 0.0, 0.0, 0.0, 0.0, 0.0, 0.0, 0.0, 0.0, 0.0, 0.0, 0.0, 0.0, 0.0, 0.0, 0.0, 0.0, 0.0, 0.0, 0.0, 0.0, 0.0, 0.0, 0.0, 0.0, 0.0, 0.0, 0.0, 0.0, 0.0, 0.0, 0.0, 0.0, 0.0, 0.0, 0.0, 0.0, 0.0, 0.0, 0.0, 0.0, 0.0, 0.0, 0.0, 0.0, 0.0, 0.0, 0.0, 0.0, 0.0, 0.0, 0.0, 0.0, 0.0, 0.0, 0.0, 0.0, 0.0, 0.0, 0.0, 0.0, 0.0, 0.0, 0.0, 0.0, 0.0, 0.0, 0.0, 0.0, 0.0, 0.0, 0.0, 0.0, 0.0, 0.0, 0.0, 0.0, 0.0, 0.36850712, 0.85040104, 1.8425356, 2.381123, 2.5512033, 2.6362433, 2.66459, 2.6929367, 2.6929367, 2.6362433, 2.5228565, 2.381123, 2.3244295, 2.2393894, 2.182696, 2.0976558, 1.9275757, 1.7291489, 1.4456817, 0.79370767, 0.14173351, -0.36850712, -0.6803208, -0.9070944, -1.1338681, -1.4456817, -2.2393894, -2.83467, -2.9764037, -3.1181371, -3.2031772, -3.316564, -3.4582977, -3.5716846, -3.6000311, -3.6567245, -3.713418, -3.770111, -3.8268046, -3.8834982, -3.911845, -3.9401915, -3.968538, -3.996885, -4.025232, -4.0535784, -4.081925, -4.110272, -4.1386185, -4.166965, -4.1953115, -4.252005, -4.2803516, -4.3086987, -4.337045, -4.337045, -4.337045, -4.337045, -4.337045, -4.337045, -4.337045, -4.337045, -4.337045, -4.337045, -4.337045, -4.365392, -4.365392, -4.3937387, -4.422086, -4.422086, -4.4504323, -4.4504323, -4.4504323, -4.4504323, -4.4504323, -4.4504323, -4.4504323, -4.4504323, -4.4504323, -4.4504323, -4.4504323, -4.4504323, -4.4504323, -4.4504323, -4.4504323, -4.4504323, -4.4504323, -4.4504323, -4.4504323];[0.0, 0.0, 0.0, 0.0, 0.0, 0.0, 0.0, 0.0, 0.0, 0.0, 0.0, 0.0, 0.0, 0.0, 0.0, 0.0, 0.0, 0.0, 0.0, 0.0, 0.0, 0.0, 0.0, 0.0, 0.0, 0.0, 0.0, 0.0, 0.0, 0.0, 0.0, 0.0, 0.0, 0.0, 0.0, 0.0, 0.0, 0.0, 0.0, 0.0, 0.0, 0.0, 0.0, 0.0, 0.0, 0.0, 0.0, 0.0, 0.0, 0.0, 0.0, 0.0, 0.0, 0.0, 0.0, 0.0, 0.0, 0.0, 0.0, 0.0, 0.0, 0.0, 0.0, 0.0, 0.0, 0.0, 0.0, 0.0, 0.0, 0.0, 0.0, 0.0, 0.0, 0.0, 0.0, 0.0, 0.0, 0.0, 0.0, 0.0, -0.3401604, -0.79370767, -1.899229, -2.6929367, -3.146484, -3.4299507, -3.6283777, -3.8268046, -4.166965, -4.422086, -4.7055526, -5.1024065, -5.2441397, -5.4425664, -5.5559535, -5.697687, -5.896114, -6.094541, -6.292968, -6.633128, -6.888248, -7.0016356, -7.029982, -7.029982, -7.029982, -7.029982, -7.029982, -7.0016356, -6.9732885, -6.9165955, -6.888248, -6.831555, -6.774862, -6.7465153, -6.7181687, -6.6898212, -6.5764346, -6.5197415, -6.378008, -6.292968, -6.2079277, -6.151234, -6.1228876, -6.0661945, -6.037847, -6.0095005, -5.9528074, -5.9528074, -5.924461, -5.896114, -5.8394203, -5.811074, -5.782727, -5.75438, -5.7260337, -5.697687, -5.697687, -5.697687, -5.697687, -5.697687, -5.697687, -5.697687, -5.66934, -5.66934, -5.6409936, -5.612647, -5.612647, -5.5559535, -5.4992604, -5.41422, -5.3858733, -5.3858733, -5.3575263, -5.3575263, -5.3575263, -5.3575263, -5.3575263, -5.3575263, -5.3575263, -5.3575263, -5.3575263, -5.3575263, -5.3575263, -5.3575263, -5.3575263, -5.3575263, -5.3575263, -5.3575263, -5.3575263];[0.004301900044083595, 0.019334900192916393, 0.03409170010127127, 0.05189530015923083, 0.06734700012020767, 0.08482470014132559, 0.10249820002354681, 0.11922490014694631, 0.1349775001872331, 0.15201720013283193, 0.1681788000278175, 0.18583890004083514, 0.19965410022996366, 0.21923370007425547, 0.23431290010921657, 0.25117890001274645, 0.26719370018690825, 0.28578570019453764, 0.30045040021650493, 0.31831170013174415, 0.3352386001497507, 0.35211280011571944, 0.3685055000241846, 0.3853512001223862, 0.40288480021990836, 0.4186337999999523, 0.4344161001499742, 0.4517189001198858, 0.4671543000731617, 0.48556480021215975, 0.5014612001832575, 0.51853570016101, 0.5353515001479536, 0.5524610001593828, 0.5672922001685947, 0.5853987000882626, 0.6015192000195384, 0.618203200167045, 0.635636200197041, 0.6519786000717431, 0.6674031000584364, 0.6856129001826048, 0.7016621001530439, 0.7191599002107978, 0.7344607000704855, 0.7525708000175655, 0.7681269000750035, 0.7846466000191867, 0.8012770002242178, 0.8193765000905842, 0.8352160002104938, 0.85264110006392, 0.8677671002224088, 0.886186100076884, 0.9004133001435548, 0.9191035002004355, 0.9345264001749456, 0.9524893001653254, 0.9674867000430822, 0.9873703001067042, 1.0007766000926495, 1.0188795002177358, 1.0345195000991225, 1.0523712001740932, 1.0677294000051916, 1.0863951002247632, 1.102089500054717, 1.1195286000147462, 1.1354886000044644, 1.1517536002211273, 1.1675560001749545, 1.1874216001015157, 1.2015469002071768, 1.218557600164786, 1.2349228002130985, 1.2514253000263125, 1.2675684001296759, 1.284753300016746, 1.2999188001267612, 1.3185865001287311, 1.334624300012365, 1.351853400003165, 1.37011480005458, 1.3839966000523418, 1.4005131002049893, 1.4186127001885325, 1.4340335000306368, 1.4526018002070487, 1.4669205001555383, 1.485140100121498, 1.5032799001783133, 1.5172963000368327, 1.5345392001327127, 1.5519680001307279, 1.5682561001740396, 1.5859040000941604, 1.6018392001278698, 1.6181151000782847, 1.6349646002054214, 1.6515496000647545, 1.667565300129354, 1.68425100017339, 1.7001789000350982, 1.72091170004569, 1.7356013001408428, 1.7511692000553012, 1.7668734001927078, 1.78496880014427, 1.8007224001921713, 1.820009200135246, 1.8339518001303077, 1.8519138002302498, 1.8666440001688898, 1.8846393001731485, 1.9006560000125319, 1.917338800150901, 1.9380557001568377, 1.9512650000397116, 1.9670907000545412, 1.9865162000060081, 2.000557100167498, 2.0182903001550585, 2.0342514000367373, 2.052307900041342, 2.0689678001217544, 2.085337300086394, 2.1006379001773894, 2.1179133001714945, 2.1337429000996053, 2.15076640015468, 2.167038000188768, 2.1848402000032365, 2.201087700203061, 2.2190759000368416, 2.233721600146964, 2.250856100115925, 2.26590760005638, 2.2848676000721753, 2.3016636001411825, 2.3182650001253933, 2.334359500091523, 2.3528362000361085, 2.368674000026658, 2.3847708001267165, 2.4015245002228767, 2.418583700200543, 2.4343444001860917, 2.4515118000563234, 2.466705300146714, 2.4863862001802772, 2.500189600046724, 2.5176683000754565, 2.53283610008657, 2.5523830000311136, 2.568876100005582, 2.5851118001155555, 2.6002201000228524, 2.6190509002190083, 2.6340079000219703, 2.6524604000151157, 2.6677320001181215, 2.685803100001067, 2.701433800160885, 2.7193548001814634, 2.73368570022285, 2.7516488002147526, 2.767753600142896, 2.7857935000211, 2.8000401000026613]
S15;2;0;0;1;False;1000;True;;8;64.23699449957532;drag;L;3.4582977;6.6614747;62.56;7.51;3.4833295999560505;3.483433699933812;1686212199.9563215;1686212199.9630582;1686212200.7184603;1686212201.2188818;1686212202.2008665;1686212205.684548;[0.0, 0.0, 0.0, 0.0, 0.0, 0.0, 0.0, 0.0, 0.0, 0.0, 0.0, 0.0, 0.0, 0.0, 0.0, 0.0, 0.0, 0.0, 0.0, 0.0, 0.0, 0.0, 0.0, 0.0, 0.0, 0.0, 0.0, 0.0, 0.0, 0.0, 0.0, 0.0, 0.0, 0.0, 0.0, 0.0, 0.0, 0.0, 0.0, 0.0, 0.0, 0.0, 0.0, 0.0, 0.0, 0.0, 0.0, 0.0, 0.0, 0.0, 0.0, 0.0, 0.0, 0.0, 0.0, 0.0, 0.0, 0.0, 0.0, 0.0, 0.0, 0.0, 0.0, 0.0, 0.0, 0.0, 0.0, 0.0, 0.0, 0.0, 0.0, 0.0, 0.0, 0.0, 0.0, 0.0, 0.0, 0.0, 0.0, 0.0, 0.0, 0.0, 0.0, 0.0, 0.0, 0.0, 0.0, 0.0, 0.0, 0.0, 0.0, 0.0, 0.0, 0.0, 0.0, 0.0, 0.0, 0.0, 0.0, 0.0, 0.0, 0.0, 0.0, 0.0, 0.0, 0.0, 0.0, 0.0, 0.0, 0.0, 0.0, 0.0, 0.0, 0.0, 0.0, 0.0, 0.0, 0.0, 0.0, 0.0, 0.0, 0.0, 0.0, 0.0, 0.0, 0.0, 0.0, 0.0, 0.0, 0.0, 0.0, 0.0, 0.0, 0.0, 0.0, 0.0, 0.0, 0.0, 0.36850712, 1.8425356, 2.6362433, 3.0330973, 3.3449106, 3.6283777, 3.798458, 3.9401915, 4.025232, 4.1386185, 4.252005, 4.5071254, 4.6772056, 4.932326, 5.045713, 5.1024065, 5.1591, 5.1874466, 5.1874466, 5.1874466, 5.1874466, 5.1874466, 5.1591, 5.1024065, 5.045713, 4.960673, 4.875633, 4.847286, 4.7905927, 4.7055526, 4.6772056, 4.620512, 4.5071254, 4.4504323, 4.3086987, 4.1386185, 4.025232, 3.8834982, 3.8268046, 3.770111, 3.713418, 3.6850712, 3.6283777, 3.6000311, 3.5716846, 3.514991, 3.514991, 3.4866443, 3.4582977, 3.4016042, 3.4016042, 3.3732576, 3.3732576, 3.3732576, 3.3732576, 3.3732576, 3.3732576, 3.4016042, 3.4299507, 3.4299507, 3.4582977, 3.4582977, 3.4582977, 3.4582977, 3.4582977, 3.4582977, 3.4582977, 3.4582977, 3.4582977, 3.4582977, 3.4582977];[0.0, 0.0, 0.0, 0.0, 0.0, 0.0, 0.0, 0.0, 0.0, 0.0, 0.0, 0.0, 0.0, 0.0, 0.0, 0.0, 0.0, 0.0, 0.0, 0.0, 0.0, 0.0, 0.0, 0.0, 0.0, 0.0, 0.0, 0.0, 0.0, 0.0, 0.0, 0.0, 0.0, 0.0, 0.0, 0.0, 0.0, 0.0, 0.0, 0.0, 0.0, 0.0, 0.0, 0.0, 0.0, 0.0, 0.0, 0.0, 0.0, 0.0, 0.0, 0.0, 0.0, 0.0, 0.0, 0.0, 0.0, 0.0, 0.0, 0.0, 0.0, 0.0, 0.0, 0.0, 0.0, 0.0, 0.0, 0.0, 0.0, 0.0, 0.0, 0.0, 0.0, 0.0, 0.0, 0.0, 0.0, 0.0, 0.0, 0.0, 0.0, 0.0, 0.0, 0.0, 0.0, 0.0, 0.0, 0.0, 0.0, 0.0, 0.0, 0.0, 0.0, 0.0, 0.0, 0.0, 0.0, 0.0, 0.0, 0.0, 0.0, 0.0, 0.0, 0.0, 0.0, 0.0, 0.0, 0.0, 0.0, 0.0, 0.0, 0.0, 0.0, 0.0, 0.0, 0.0, 0.0, 0.0, 0.0, 0.0, 0.0, 0.0, 0.0, 0.0, 0.0, 0.0, 0.0, 0.0, 0.0, 0.0, 0.0, 0.0, 0.0, 0.0, 0.0, 0.0, 0.0, 0.0, 0.42520052, 1.7574955, 2.3527763, 2.66459, 2.948057, 3.146484, 3.2882173, 3.4016042, 3.4582977, 3.5433376, 3.6000311, 3.7417645, 3.798458, 3.911845, 3.9401915, 3.996885, 4.025232, 4.025232, 4.025232, 4.0535784, 4.0535784, 4.081925, 4.110272, 4.252005, 4.3937387, 4.5921655, 4.9890194, 5.2441397, 5.41422, 5.612647, 5.66934, 5.75438, 5.8394203, 5.896114, 5.981154, 6.094541, 6.151234, 6.264621, 6.321315, 6.378008, 6.4630475, 6.491395, 6.5197415, 6.5764346, 6.5764346, 6.6047816, 6.6047816, 6.633128, 6.6614747, 6.6614747, 6.6614747, 6.6614747, 6.6614747, 6.6614747, 6.6614747, 6.6614747, 6.6614747, 6.6614747, 6.6614747, 6.6614747, 6.6614747, 6.6614747, 6.6614747, 6.6614747, 6.6614747, 6.6614747, 6.6614747, 6.6614747, 6.6614747, 6.6614747, 6.6614747];[0.004059799946844578, 0.018031699815765023, 0.0345168998464942, 0.05153759988024831, 0.06747109978459775, 0.08524509984999895, 0.10057549993507564, 0.11751849995926023, 0.13485379982739687, 0.15249909996055067, 0.1674891000147909, 0.18613879987969995, 0.20024249982088804, 0.2183428998105228, 0.2340816999785602, 0.251674999948591, 0.26720909983851016, 0.2867303998209536, 0.30103009985759854, 0.318324499996379, 0.3347085998393595, 0.353158799931407, 0.3680310999043286, 0.38551759999245405, 0.40046009980142117, 0.4186431998386979, 0.43368829996325076, 0.4524190998636186, 0.4674240997992456, 0.4851356998551637, 0.5016648999880999, 0.5190729999449104, 0.5341866000089794, 0.5525274998508394, 0.5679465997964144, 0.5863954999949783, 0.6015438998583704, 0.6192760998383164, 0.6337257998529822, 0.6512940998654813, 0.6675119998399168, 0.6849775000009686, 0.7008678999263793, 0.7184215998277068, 0.7334749998990446, 0.7519108999986202, 0.7675348999910057, 0.7844989998266101, 0.8027340997941792, 0.8201793998014182, 0.8340680999681354, 0.8523100998718292, 0.86734539992176, 0.8845688998699188, 0.9011459997855127, 0.917983999941498, 0.9337593999225646, 0.9518001999240369, 0.9693812998011708, 0.9855722999200225, 1.0016662999987602, 1.0185652999207377, 1.0335021999198943, 1.0508808998856694, 1.0669700999278575, 1.0852055998984724, 1.1003985998686403, 1.1189015000127256, 1.1342255999334157, 1.1518625000026077, 1.1672142997849733, 1.1847528999205679, 1.2013278999365866, 1.2186725998762995, 1.2340835998766124, 1.2519848998636007, 1.2670594998635352, 1.2850881000049412, 1.3006883999332786, 1.3177460997831076, 1.3329580000136048, 1.352166999829933, 1.3677228998858482, 1.3851495999842882, 1.4007359999231994, 1.4178356998600066, 1.4337092998903245, 1.4528973998967558, 1.4680618999991566, 1.4841256998479366, 1.501382099930197, 1.5179676997940987, 1.5342414998449385, 1.5526302999351174, 1.567530700005591, 1.5848848999012262, 1.6002089998219162, 1.618523299926892, 1.6331495998892933, 1.6516696999315172, 1.6675523999147117, 1.684886199887842, 1.7007592997979373, 1.7185655999928713, 1.7345152997877449, 1.7517797998152673, 1.7680326998233795, 1.7853286999743432, 1.8001788998953998, 1.8190471997950226, 1.834388299845159, 1.8510474998038262, 1.8683182999957353, 1.885008999845013, 1.90098169981502, 1.9181874999776483, 1.9343597998376936, 1.9527236998546869, 1.967604799894616, 1.9848454999737442, 2.001882500015199, 2.0180565000046045, 2.0343802999705076, 2.051346099935472, 2.067310999846086, 2.085946099832654, 2.100973399821669, 2.1194240998011082, 2.1352031999267638, 2.1513623998034745, 2.1681334997992963, 2.185583199840039, 2.200749499956146, 2.217732299817726, 2.233821499859914, 2.2524663999211043, 2.2673256997950375, 2.2859709998592734, 2.3013959999661893, 2.318918599979952, 2.335986199788749, 2.3511919998563826, 2.366969099966809, 2.385613299906254, 2.39981979993172, 2.4202574999071658, 2.434237299952656, 2.4519208997953683, 2.465909299906343, 2.484746699919924, 2.5015808998141438, 2.518096299842, 2.5330939998384565, 2.5519611998461187, 2.568971899803728, 2.585248599993065, 2.600302199833095, 2.617834499804303, 2.635865399846807, 2.6512252998072654, 2.667659099912271, 2.6868081998545676, 2.700957799796015, 2.718323400011286, 2.7348093998152763, 2.750945799984038, 2.766378999920562, 2.7847010998521, 2.7991413997951895, 2.8183617999311537, 2.833937299903482, 2.8506510998122394, 2.868816099828109, 2.886028599925339, 2.9009477999061346, 2.9176960999611765, 2.9327861999627203, 2.9493984999135137, 2.9658662998117507, 2.9840708998963237, 3.0010581999085844, 3.0181196997873485, 3.0335907998960465, 3.0521457998547703, 3.067511999979615, 3.0851025998126715, 3.1000872999429703, 3.1180049998220056, 3.1340338999871165, 3.1514753999654204, 3.1677046997938305, 3.185356199974194, 3.1982636998873204, 3.2162417999934405, 3.232582899974659, 3.2497302999254316, 3.2677835999056697, 3.2846233998425305, 3.300205299863592, 3.3180909999646246, 3.3337570999283344, 3.352254399796948, 3.3679103998001665, 3.385925999842584, 3.400836099870503, 3.418141699861735, 3.434237999841571, 3.4523946999106556, 3.4684965999331325]
S15;3;0;0;1;False;3000;True;;8;152.41506925786481;drag;L;-5.4992604;4.1953115;142.66;6.92;3.3807700998149812;3.3808804000727832;1686212206.439914;1686212206.4458635;1686212207.2035036;1686212207.701451;1686212210.7022285;1686212214.082168;[0.0, 0.0, 0.0, 0.0, 0.0, 0.0, 0.0, 0.0, 0.0, 0.0, 0.0, 0.0, 0.0, 0.0, 0.0, 0.0, 0.0, 0.0, 0.0, 0.0, 0.0, 0.0, 0.0, 0.0, 0.0, 0.0, 0.0, 0.0, 0.0, 0.0, 0.0, 0.0, 0.0, 0.0, 0.0, 0.0, 0.0, 0.0, 0.0, 0.0, 0.0, 0.0, 0.0, 0.0, 0.0, 0.0, 0.0, 0.0, 0.0, 0.0, 0.0, 0.0, 0.0, 0.0, 0.0, 0.0, 0.0, 0.0, 0.0, 0.0, 0.0, 0.0, 0.0, 0.0, 0.0, 0.0, 0.0, 0.0, 0.0, 0.0, 0.0, 0.0, 0.0, 0.0, 0.0, 0.0, 0.0, 0.0, 0.0, 0.0, 0.0, 0.0, 0.0, 0.0, 0.0, 0.0, 0.0, 0.0, 0.0, 0.0, 0.0, 0.0, 0.0, 0.0, 0.0, 0.0, 0.0, 0.0, 0.0, 0.0, 0.0, 0.0, 0.0, 0.0, 0.0, 0.0, 0.0, 0.0, 0.0, 0.0, 0.0, 0.0, 0.0, 0.0, 0.0, 0.0, 0.0, 0.0, -1.1055214, -3.316564, -4.960673, -5.2441397, -5.300833, -5.32918, -5.41422, -5.5843005, -6.037847, -6.3496614, -6.6047816, -6.633128, -6.774862, -6.9165955, -7.0583286, -7.2567554, -7.341796, -7.426836, -7.1150217, -6.944942, -6.8599014, -6.8599014, -6.8599014, -6.8599014, -6.8599014, -6.8599014, -6.8599014, -6.831555, -6.8032084, -6.5764346, -6.378008, -6.2362742, -6.2079277, -6.1795807, -6.1228876, -6.1228876, -6.094541, -6.094541, -6.094541, -6.0661945, -6.0661945, -6.037847, -5.981154, -5.896114, -5.896114, -5.8394203, -5.782727, -5.697687, -5.612647, -5.5843005, -5.5559535, -5.527607, -5.527607, -5.527607, -5.527607, -5.527607, -5.527607, -5.527607, -5.527607, -5.527607, -5.527607, -5.527607, -5.527607, -5.527607, -5.527607, -5.527607, -5.527607, -5.527607, -5.527607, -5.527607, -5.4992604, -5.4992604, -5.4992604, -5.4992604, -5.4992604, -5.4992604, -5.4992604, -5.4992604, -5.4992604, -5.4992604, -5.4992604, -5.4992604, -5.4992604, -5.4992604, -5.4992604];[0.0, 0.0, 0.0, 0.0, 0.0, 0.0, 0.0, 0.0, 0.0, 0.0, 0.0, 0.0, 0.0, 0.0, 0.0, 0.0, 0.0, 0.0, 0.0, 0.0, 0.0, 0.0, 0.0, 0.0, 0.0, 0.0, 0.0, 0.0, 0.0, 0.0, 0.0, 0.0, 0.0, 0.0, 0.0, 0.0, 0.0, 0.0, 0.0, 0.0, 0.0, 0.0, 0.0, 0.0, 0.0, 0.0, 0.0, 0.0, 0.0, 0.0, 0.0, 0.0, 0.0, 0.0, 0.0, 0.0, 0.0, 0.0, 0.0, 0.0, 0.0, 0.0, 0.0, 0.0, 0.0, 0.0, 0.0, 0.0, 0.0, 0.0, 0.0, 0.0, 0.0, 0.0, 0.0, 0.0, 0.0, 0.0, 0.0, 0.0, 0.0, 0.0, 0.0, 0.0, 0.0, 0.0, 0.0, 0.0, 0.0, 0.0, 0.0, 0.0, 0.0, 0.0, 0.0, 0.0, 0.0, 0.0, 0.0, 0.0, 0.0, 0.0, 0.0, 0.0, 0.0, 0.0, 0.0, 0.0, 0.0, 0.0, 0.0, 0.0, 0.0, 0.0, 0.0, 0.0, 0.0, 0.0, 0.0, -0.19842692, -0.6803208, -0.73701423, -0.73701423, -0.73701423, -0.76536095, -0.8220543, -0.96378785, -1.0771747, -1.1338681, -1.1622148, -1.1622148, -1.1622148, -1.1622148, -1.0771747, -0.96378785, -0.59528077, 1.1338681, 1.7008021, 1.9275757, 2.0976558, 2.1543493, 2.182696, 2.2393894, 2.2677362, 2.2677362, 2.2960827, 2.3244295, 2.4378164, 2.5228565, 2.6078966, 2.6362433, 2.6362433, 2.66459, 2.66459, 2.6929367, 2.6929367, 2.7212832, 2.7496302, 2.7779768, 2.83467, 2.948057, 3.0897903, 3.146484, 3.2882173, 3.4016042, 3.5716846, 3.713418, 3.798458, 3.8268046, 3.8551514, 3.8834982, 3.8834982, 3.8834982, 3.8834982, 3.8834982, 3.911845, 3.9401915, 3.9401915, 3.968538, 3.996885, 4.025232, 4.081925, 4.110272, 4.1386185, 4.1386185, 4.166965, 4.1953115, 4.1953115, 4.1953115, 4.1953115, 4.1953115, 4.1953115, 4.1953115, 4.1953115, 4.1953115, 4.1953115, 4.1953115, 4.1953115, 4.1953115, 4.1953115, 4.1953115, 4.1953115, 4.1953115];[0.0043038001749664545, 0.01638960000127554, 0.03454370005056262, 0.05016310000792146, 0.06791750015690923, 0.08369710016995668, 0.10106550017371774, 0.1162652000784874, 0.13397750002332032, 0.15006830007769167, 0.16818120004609227, 0.1832116001751274, 0.19912480004131794, 0.21565070003271103, 0.23463170020841062, 0.24979520007036626, 0.26807450014166534, 0.2831845001783222, 0.3010009001009166, 0.31602650019340217, 0.3337162001989782, 0.35093710012733936, 0.3669339001644403, 0.3835648000240326, 0.40061420015990734, 0.41648930008523166, 0.4347980001475662, 0.44993830006569624, 0.46775110019370914, 0.4826613999903202, 0.5002640001475811, 0.5162536001298577, 0.5349858000408858, 0.5501391000580043, 0.5684555000625551, 0.5837175000924617, 0.601800300180912, 0.6169631001539528, 0.6333489001262933, 0.6492316001094878, 0.6682799002155662, 0.6840576000977308, 0.7005115000065416, 0.7165545001626015, 0.734750600066036, 0.7496762000955641, 0.7679326999932528, 0.783075800165534, 0.8010189000051469, 0.8171609002165496, 0.833967300131917, 0.8498887000605464, 0.8682021000422537, 0.8824344000313431, 0.9003256000578403, 0.9167951000854373, 0.9346404999960214, 0.9490366000682116, 0.9678204001393169, 0.9839221001602709, 1.0010234001092613, 1.0171092001255602, 1.0348286000080407, 1.050206300104037, 1.0675680001731962, 1.0837522000074387, 1.1008201001677662, 1.1169640000443906, 1.1325091000180691, 1.1499951002188027, 1.1671787002123892, 1.1841363001149148, 1.201553100021556, 1.217907400103286, 1.2350227001588792, 1.2517945000436157, 1.2675138001795858, 1.282662000041455, 1.2999166001100093, 1.3175397000741214, 1.3338894001208246, 1.3505548001267016, 1.367166800191626, 1.3840227001346648, 1.4020864001940936, 1.4165483000688255, 1.4354185000993311, 1.4496077001094818, 1.4689339001197368, 1.4836204000748694, 1.5013481001369655, 1.5154043000657111, 1.534706500126049, 1.5503485000226647, 1.5669853000435978, 1.582751200068742, 1.6008660001680255, 1.6162767000496387, 1.6326653000432998, 1.6487579001113772, 1.6663852999918163, 1.6825265001971275, 1.7017841001506895, 1.7173843001946807, 1.734844900202006, 1.7499726000241935, 1.7666559000499547, 1.7845235001295805, 1.8013580001424998, 1.8170868000015616, 1.8329474001657218, 1.8494255000259727, 1.8681364001240581, 1.883159200195223, 1.9005460001062602, 1.9163929000496864, 1.9338140999898314, 1.9495808000210673, 1.9658475001342595, 1.982901900075376, 2.000914900097996, 2.0165109999943525, 2.035840200027451, 2.0486634001135826, 2.0664869002066553, 2.0828731001820415, 2.0996566000394523, 2.1169214001856744, 2.1332719000056386, 2.14871390000917, 2.169220000039786, 2.182190400082618, 2.200167200062424, 2.2177047000732273, 2.232257700059563, 2.24814680009149, 2.2670163000002503, 2.2814505000133067, 2.3006095001474023, 2.316134100081399, 2.332104600034654, 2.349584300071001, 2.366944900015369, 2.382509700022638, 2.400758400093764, 2.4147506000008434, 2.434062800137326, 2.4487781000789255, 2.467104900162667, 2.485292199999094, 2.4992571000475436, 2.5163736999966204, 2.532906100153923, 2.5492032000329345, 2.5696279001422226, 2.5818027001805604, 2.599839200032875, 2.615401100134477, 2.6324429002124816, 2.6481168000027537, 2.6675078000407666, 2.6814317000098526, 2.70048650004901, 2.716290900018066, 2.7333776000887156, 2.749124600086361, 2.766790700145066, 2.7824454000219703, 2.799193700077012, 2.817683900007978, 2.834270399995148, 2.848789800191298, 2.866023300215602, 2.8820194001309574, 2.9006121000275016, 2.9175377001520246, 2.933188800001517, 2.9495316001120955, 2.9696742000523955, 2.9838966000825167, 2.9991837001871318, 3.017586400033906, 3.0333157000131905, 3.04955770005472, 3.066419100156054, 3.085349200060591, 3.1012968001887202, 3.115195400081575, 3.1336702001281083, 3.1486225000116974, 3.1667721001431346, 3.1830219000112265, 3.200876499991864, 3.214965100167319, 3.234902400057763, 3.249999900115654, 3.2672991000581533, 3.2822525000665337, 3.300375600112602, 3.3165478000883013, 3.3334046001546085, 3.348958100192249, 3.365900600096211]
S15;4;0;0;1;False;3000;True;;8;-64.85926064253623;drag;L;2.83467;-6.4063544;-66.13;7.01;2.396813299972564;2.3969310999382287;1686212214.7612712;1686212214.7792575;1686212215.5359085;1686212216.0356092;1686212219.0336704;1686212221.4312987;[0.0, 0.0, 0.0, 0.0, 0.0, 0.0, 0.0, 0.0, 0.0, 0.0, 0.0, 0.0, 0.0, 0.0, 0.0, 0.0, 0.0, 0.0, 0.0, 0.0, 0.0, 0.0, 0.0, 0.0, 0.0, 0.0, 0.0, 0.0, 0.0, 0.0, 0.0, 0.0, 0.0, 0.0, 0.0, 0.0, 0.0, 0.0, 0.0, 0.0, 0.0, 0.0, 0.0, 0.0, 0.0, 0.0, 0.0, 0.0, 0.0, 0.0, 0.0, 0.0, 0.0, 0.0, 0.0, 0.0, 0.0, 0.0, 0.0, 0.0, 0.0, 0.0, 0.0, 0.0, 0.0, 0.0, 0.0, 0.0, 0.0, 0.0, 0.0, 0.0, 0.0, 0.0, 0.0, 0.0, 0.0, 0.0, 0.0, 0.0, 0.0, 0.0, 0.0, 0.0, 0.3118137, 0.48189393, 0.7086675, 0.79370767, 0.87874776, 1.1055214, 1.2189082, 1.3606416, 1.5874153, 1.6724553, 1.8425356, 1.9275757, 2.012616, 2.0976558, 2.1260026, 2.182696, 2.182696, 2.211043, 2.211043, 2.211043, 2.2677362, 2.3244295, 2.381123, 2.4378164, 2.5228565, 2.6362433, 2.7496302, 2.7779768, 2.7779768, 2.7779768, 2.7779768, 2.7779768, 2.7779768, 2.7779768, 2.7779768, 2.7779768, 2.7779768, 2.7779768, 2.7779768, 2.7779768, 2.7779768, 2.8063235, 2.83467, 2.83467, 2.83467, 2.83467, 2.83467, 2.83467, 2.83467, 2.83467, 2.83467, 2.83467, 2.83467, 2.83467, 2.83467, 2.83467, 2.83467, 2.83467, 2.83467, 2.83467];[0.0, 0.0, 0.0, 0.0, 0.0, 0.0, 0.0, 0.0, 0.0, 0.0, 0.0, 0.0, 0.0, 0.0, 0.0, 0.0, 0.0, 0.0, 0.0, 0.0, 0.0, 0.0, 0.0, 0.0, 0.0, 0.0, 0.0, 0.0, 0.0, 0.0, 0.0, 0.0, 0.0, 0.0, 0.0, 0.0, 0.0, 0.0, 0.0, 0.0, 0.0, 0.0, 0.0, 0.0, 0.0, 0.0, 0.0, 0.0, 0.0, 0.0, 0.0, 0.0, 0.0, 0.0, 0.0, 0.0, 0.0, 0.0, 0.0, 0.0, 0.0, 0.0, 0.0, 0.0, 0.0, 0.0, 0.0, 0.0, 0.0, 0.0, 0.0, 0.0, 0.0, 0.0, 0.0, 0.0, 0.0, 0.0, 0.0, 0.0, 0.0, 0.0, 0.0, 0.0, -0.36850712, -0.6236274, -0.9070944, -1.0771747, -1.2189082, -1.4740285, -1.7008021, -1.899229, -2.211043, -2.3527763, -2.57955, -2.6929367, -2.8630168, -3.0897903, -3.2598708, -3.4016042, -3.514991, -3.5716846, -3.6850712, -3.798458, -3.9401915, -4.166965, -4.3086987, -4.422086, -4.6772056, -4.960673, -5.5843005, -5.811074, -5.896114, -6.0095005, -6.0661945, -6.1228876, -6.2079277, -6.2362742, -6.434701, -6.434701, -6.434701, -6.434701, -6.434701, -6.434701, -6.434701, -6.4063544, -6.4063544, -6.4063544, -6.4063544, -6.4063544, -6.4063544, -6.4063544, -6.4063544, -6.4063544, -6.4063544, -6.4063544, -6.4063544, -6.4063544, -6.4063544, -6.4063544, -6.4063544, -6.4063544, -6.4063544, -6.4063544];[0.005053200060501695, 0.017125200014561415, 0.03463180013932288, 0.05056990007869899, 0.06761140003800392, 0.08461609994992614, 0.10190070001408458, 0.11762999999336898, 0.13449400011450052, 0.1510707000270486, 0.1691551001276821, 0.1842191000469029, 0.20008060010150075, 0.21874379995279014, 0.23446510010398924, 0.2484796999488026, 0.2676524999551475, 0.28505810000933707, 0.30287900008261204, 0.31699980003759265, 0.3342170000541955, 0.35036169993691146, 0.3687643001321703, 0.3834274001419544, 0.402276000007987, 0.41726190014742315, 0.4346279001329094, 0.4507846999913454, 0.46897369995713234, 0.4843502000439912, 0.5012587001547217, 0.5161146000027657, 0.5343734000343829, 0.5509444000199437, 0.5688398000784218, 0.5814368000719696, 0.5990589000284672, 0.6149073999840766, 0.6319180000573397, 0.6481487001292408, 0.6652794999536127, 0.6822882001288235, 0.7015766999684274, 0.7187632001005113, 0.7365904001053423, 0.7518033999949694, 0.7680989000946283, 0.7853439000900835, 0.8012672001495957, 0.8167024001013488, 0.8347823999356478, 0.8505047000944614, 0.8689198000356555, 0.8842398999258876, 0.9028459000401199, 0.917497199960053, 0.9356784000992775, 0.9497313001193106, 0.9690275001339614, 0.982225599931553, 0.9986438001506031, 1.015824800124392, 1.0345195000991225, 1.0506949999835342, 1.0679299000184983, 1.0846297000534832, 1.1019272000994533, 1.117730800062418, 1.1344779001083225, 1.1493019999470562, 1.166341400006786, 1.1822186999488622, 1.2002735999412835, 1.2165930001065135, 1.234734599944204, 1.2496263000648469, 1.2663613001350313, 1.2824147001374513, 1.299487499985844, 1.315649800002575, 1.3329986000899225, 1.3489447000902146, 1.3670874000526965, 1.3830377999693155, 1.3999745000619441, 1.4159256999846548, 1.4340244999621063, 1.4500021000858396, 1.4671447000000626, 1.4831705000251532, 1.5000700000673532, 1.5168680001515895, 1.533811799949035, 1.549476700136438, 1.5651406000833958, 1.5827723999973387, 1.5990238001104444, 1.614421300124377, 1.6318878000602126, 1.6500401999801397, 1.6670033000409603, 1.6850253001321107, 1.7010937000159174, 1.717202699976042, 1.7336975999642164, 1.7503424999304116, 1.7677343001123518, 1.7838431999552995, 1.800857000052929, 1.817062099929899, 1.8337560000363737, 1.8490542001090944, 1.865936400135979, 1.883036300074309, 1.9028733000159264, 1.9161988999694586, 1.9327603001147509, 1.9491696001496166, 1.9671362000517547, 1.9819696999620646, 1.998504800023511, 2.0144666000269353, 2.0325315999798477, 2.048481300007552, 2.066498599946499, 2.0824937000870705, 2.101530299987644, 2.116042400011793, 2.13423900003545, 2.1486828001216054, 2.1678617999423295, 2.1831104001030326, 2.2007317999377847, 2.216266500065103, 2.2337532001547515, 2.2498974001500756, 2.2664520000107586, 2.282504600007087, 2.3001650001388043, 2.316324100131169, 2.3325179000385106, 2.3482375000603497, 2.365488399984315, 2.381191899999976]
S15;5;0;0;1;False;1000;True;;8;56.06712717090025;drag;L;4.1386185;5.1024065;50.95;6.57;2.4988761998247355;2.4989662000443786;1686212222.137294;1686212222.1455007;1686212222.9004931;1686212223.400505;1686212224.3830333;1686212226.8825536;[0.0, 0.0, 0.0, 0.0, 0.0, 0.0, 0.0, 0.0, 0.0, 0.0, 0.0, 0.0, 0.0, 0.0, 0.0, 0.0, 0.0, 0.0, 0.0, 0.0, 0.0, 0.0, 0.0, 0.0, 0.0, 0.0, 0.0, 0.0, 0.0, 0.0, 0.0, 0.0, 0.0, 0.0, 0.0, 0.0, 0.0, 0.0, 0.0, 0.0, 0.0, 0.0, 0.0, 0.0, 0.0, 0.0, 0.0, 0.0, 0.0, 0.0, 0.0, 0.0, 0.0, 0.0, 0.0, 0.0, 0.0, 0.0, 0.0, 0.0, 0.0, 0.0, 0.0, 0.0, 0.0, 0.0, 0.0, 0.0, 0.0, 0.0, 0.0, 0.0, 0.6236274, 1.5023751, 1.7008021, 1.8141888, 1.8425356, 1.8708823, 1.899229, 1.899229, 1.9275757, 1.9275757, 1.9559225, 1.9559225, 1.984269, 2.012616, 2.0409625, 2.0976558, 2.1260026, 2.211043, 2.2393894, 2.3527763, 2.4945097, 2.8630168, 3.3732576, 3.6000311, 3.7417645, 3.968538, 4.1386185, 4.2803516, 4.337045, 4.365392, 4.4504323, 4.5071254, 4.5354724, 4.5921655, 4.620512, 4.648859, 4.6772056, 4.6772056, 4.6772056, 4.6772056, 4.6772056, 4.6772056, 4.6772056, 4.6772056, 4.6772056, 4.6772056, 4.648859, 4.5921655, 4.563819, 4.5354724, 4.478779, 4.4504323, 4.337045, 4.3086987, 4.252005, 4.1953115, 4.166965, 4.1386185, 4.1386185, 4.1386185, 4.1386185, 4.1386185, 4.1386185, 4.1386185, 4.1386185, 4.1386185, 4.1386185, 4.1386185, 4.1386185, 4.1386185, 4.1386185, 4.1386185, 4.1386185, 4.1386185, 4.1386185, 4.1386185, 4.1386185, 4.1386185];[0.0, 0.0, 0.0, 0.0, 0.0, 0.0, 0.0, 0.0, 0.0, 0.0, 0.0, 0.0, 0.0, 0.0, 0.0, 0.0, 0.0, 0.0, 0.0, 0.0, 0.0, 0.0, 0.0, 0.0, 0.0, 0.0, 0.0, 0.0, 0.0, 0.0, 0.0, 0.0, 0.0, 0.0, 0.0, 0.0, 0.0, 0.0, 0.0, 0.0, 0.0, 0.0, 0.0, 0.0, 0.0, 0.0, 0.0, 0.0, 0.0, 0.0, 0.0, 0.0, 0.0, 0.0, 0.0, 0.0, 0.0, 0.0, 0.0, 0.0, 0.0, 0.0, 0.0, 0.0, 0.0, 0.0, 0.0, 0.0, 0.0, 0.0, 0.0, 0.0, 1.5307219, 3.5716846, 4.081925, 4.365392, 4.478779, 4.5354724, 4.5921655, 4.6772056, 4.733899, 4.818939, 4.847286, 4.932326, 5.1024065, 5.1874466, 5.300833, 5.41422, 5.4709134, 5.5843005, 5.612647, 5.6409936, 5.612647, 5.5559535, 5.4425664, 5.41422, 5.32918, 5.2724867, 5.215793, 5.1591, 5.130753, 5.130753, 5.1024065, 5.0740595, 5.017366, 4.9890194, 4.960673, 4.932326, 4.9039793, 4.875633, 4.847286, 4.847286, 4.818939, 4.818939, 4.7905927, 4.7905927, 4.7905927, 4.7905927, 4.7905927, 4.7905927, 4.7905927, 4.7905927, 4.818939, 4.818939, 4.875633, 4.9039793, 4.960673, 5.017366, 5.045713, 5.045713, 5.0740595, 5.0740595, 5.1024065, 5.1024065, 5.1024065, 5.1024065, 5.1024065, 5.1024065, 5.1024065, 5.1024065, 5.1024065, 5.1024065, 5.1024065, 5.1024065, 5.1024065, 5.1024065, 5.1024065, 5.1024065, 5.1024065, 5.1024065];[0.003815599950030446, 0.018402599962428212, 0.03585670003667474, 0.051627600099891424, 0.0671779999975115, 0.08589890017174184, 0.10135380015708506, 0.11869730008766055, 0.13519620010629296, 0.15239900001324713, 0.1676448001526296, 0.18489590007811785, 0.1999311000108719, 0.21893850015476346, 0.23417630000039935, 0.2520008999854326, 0.26731860009022057, 0.2856976001057774, 0.3005606001242995, 0.31846030009910464, 0.33467110013589263, 0.35213320003822446, 0.36743049998767674, 0.3863633000291884, 0.4007475001271814, 0.4176976000890136, 0.4348137001506984, 0.4528827001340687, 0.4683322999626398, 0.48525080014951527, 0.5011661001481116, 0.5175895001739264, 0.5349080001469702, 0.5519556000363082, 0.5681533000897616, 0.5854537000413984, 0.6002730999607593, 0.6177576000336558, 0.6347330999560654, 0.6515723001211882, 0.6677107999566942, 0.6852045999839902, 0.7013369000051171, 0.718232800019905, 0.7343137999996543, 0.7521010001655668, 0.7666211000178009, 0.7850005000364035, 0.7999813000205904, 0.818132400047034, 0.8349409999791533, 0.8528976000379771, 0.8685948001220822, 0.8855964001268148, 0.9015755001455545, 0.9183436001185328, 0.9340777001343668, 0.9516660000663251, 0.967418699990958, 0.9854329000227153, 1.0021884001325816, 1.018289500148967, 1.034504699986428, 1.0523967000190169, 1.0681463000364602, 1.0852559001650661, 1.100434800144285, 1.1181551001500338, 1.1341766000259668, 1.1525108001660556, 1.1674379999749362, 1.1850273001473397, 1.2001863000914454, 1.2170766000635922, 1.2341933001298457, 1.2521422000136226, 1.2668504000175744, 1.2845505001023412, 1.2998252001125365, 1.3179029000457376, 1.3363882000558078, 1.3507372001186013, 1.366557199973613, 1.3843299001455307, 1.400009399978444, 1.4185971999540925, 1.433473499957472, 1.4507276001386344, 1.4682937001343817, 1.4842157999519259, 1.500561899971217, 1.5199574001599103, 1.5340544001664966, 1.5511771000456065, 1.5688045001588762, 1.5841449999716133, 1.6012709999922663, 1.617619600147009, 1.635475100018084, 1.6514874000567943, 1.6668702000752091, 1.684549800120294, 1.701567100128159, 1.7173649000469595, 1.7366490999702364, 1.75048470008187, 1.768330299993977, 1.7863434001337737, 1.7997916000895202, 1.8173802001401782, 1.833892700029537, 1.8505923999473453, 1.8676775000058115, 1.8847666000947356, 1.9009114999789745, 1.9182144000660628, 1.933584300102666, 1.9513000999577343, 1.9662661000620574, 1.9838807000778615, 2.002305299974978, 2.018511800095439, 2.034488100092858, 2.0512916001025587, 2.066940400050953, 2.084704800043255, 2.1004262000788003, 2.117043999955058, 2.134873199975118, 2.151581499958411, 2.1663202000781894, 2.1842366999480873, 2.2006936999969184, 2.217250799993053, 2.232880200026557, 2.2511321001220495, 2.2683010001201183, 2.285039500100538, 2.3000960999634117, 2.3180917999707162, 2.3330002001021057, 2.352129500126466, 2.3678973000496626, 2.3858906000386924, 2.401160900015384, 2.419541100040078, 2.4335163000505418, 2.4513135000597686, 2.4671646000351757, 2.484762000152841]
S15;6;0;0;1;False;1000;True;;8;178.86694372752828;drag;L;-6.3496614;-0.1700802;-178.47;6.35;3.499624100048095;3.4996971001382917;1686212227.693194;1686212227.7112808;1686212228.4653316;1686212228.9655387;1686212229.9481068;1686212233.4484446;[0.0, 0.0, 0.0, 0.0, 0.0, 0.0, 0.0, 0.0, 0.0, 0.0, 0.0, 0.0, 0.0, 0.0, 0.0, 0.0, 0.0, 0.0, 0.0, 0.0, 0.0, 0.0, 0.0, 0.0, 0.0, 0.0, 0.0, 0.0, 0.0, 0.0, 0.0, 0.0, 0.0, 0.0, 0.0, 0.0, 0.0, 0.0, 0.0, 0.0, 0.0, 0.0, 0.0, 0.0, 0.0, 0.0, 0.0, 0.0, 0.0, 0.0, 0.0, 0.0, 0.0, 0.0, 0.0, 0.0, 0.0, 0.0, 0.0, 0.0, 0.0, 0.0, 0.0, 0.0, 0.0, 0.0, 0.0, 0.0, 0.0, 0.0, 0.0, 0.0, 0.0, 0.0, 0.0, 0.0, 0.0, 0.0, 0.0, 0.0, 0.0, 0.0, 0.0, 0.0, 0.0, 0.0, 0.0, 0.0, 0.0, 0.0, 0.0, 0.0, 0.0, 0.0, 0.0, 0.0, 0.0, 0.0, 0.0, 0.0, 0.0, 0.0, 0.0, 0.0, 0.0, 0.0, 0.0, 0.0, 0.0, 0.0, 0.0, 0.0, 0.0, 0.0, 0.0, 0.0, 0.0, 0.0, 0.0, 0.0, 0.0, 0.0, 0.0, 0.0, 0.0, 0.0, 0.0, -1.4740285, -3.3732576, -5.300833, -5.7260337, -5.811074, -5.8394203, -5.924461, -6.0095005, -6.151234, -6.2079277, -6.2362742, -6.292968, -6.321315, -6.321315, -6.321315, -6.321315, -6.321315, -6.321315, -6.321315, -6.292968, -6.264621, -6.2362742, -6.1795807, -6.094541, -5.9528074, -5.8394203, -5.782727, -5.75438, -5.75438, -5.75438, -5.75438, -5.75438, -5.75438, -5.75438, -5.75438, -5.782727, -5.782727, -5.782727, -5.8394203, -5.8394203, -5.8677673, -5.8677673, -5.896114, -5.9528074, -6.0095005, -6.0661945, -6.1795807, -6.2362742, -6.292968, -6.3496614, -6.3496614, -6.378008, -6.378008, -6.378008, -6.378008, -6.378008, -6.378008, -6.378008, -6.378008, -6.378008, -6.378008, -6.378008, -6.378008, -6.378008, -6.378008, -6.378008, -6.378008, -6.378008, -6.378008, -6.378008, -6.378008, -6.378008, -6.3496614, -6.3496614, -6.3496614, -6.3496614, -6.3496614, -6.3496614, -6.3496614, -6.3496614, -6.3496614, -6.3496614, -6.3496614];[0.0, 0.0, 0.0, 0.0, 0.0, 0.0, 0.0, 0.0, 0.0, 0.0, 0.0, 0.0, 0.0, 0.0, 0.0, 0.0, 0.0, 0.0, 0.0, 0.0, 0.0, 0.0, 0.0, 0.0, 0.0, 0.0, 0.0, 0.0, 0.0, 0.0, 0.0, 0.0, 0.0, 0.0, 0.0, 0.0, 0.0, 0.0, 0.0, 0.0, 0.0, 0.0, 0.0, 0.0, 0.0, 0.0, 0.0, 0.0, 0.0, 0.0, 0.0, 0.0, 0.0, 0.0, 0.0, 0.0, 0.0, 0.0, 0.0, 0.0, 0.0, 0.0, 0.0, 0.0, 0.0, 0.0, 0.0, 0.0, 0.0, 0.0, 0.0, 0.0, 0.0, 0.0, 0.0, 0.0, 0.0, 0.0, 0.0, 0.0, 0.0, 0.0, 0.0, 0.0, 0.0, 0.0, 0.0, 0.0, 0.0, 0.0, 0.0, 0.0, 0.0, 0.0, 0.0, 0.0, 0.0, 0.0, 0.0, 0.0, 0.0, 0.0, 0.0, 0.0, 0.0, 0.0, 0.0, 0.0, 0.0, 0.0, 0.0, 0.0, 0.0, 0.0, 0.0, 0.0, 0.0, 0.0, 0.0, 0.0, 0.0, 0.0, 0.0, 0.0, 0.0, 0.0, 0.0, -0.2267736, -0.73701423, -1.2189082, -1.3606416, -1.3889884, -1.3889884, -1.3889884, -1.417335, -1.4456817, -1.4740285, -1.4740285, -1.4740285, -1.4740285, -1.4740285, -1.4740285, -1.4740285, -1.4740285, -1.4740285, -1.4740285, -1.4740285, -1.4740285, -1.4456817, -1.3039483, -1.1055214, -0.3401604, 0.1700802, 0.39685383, 0.56693405, 0.65197414, 0.7086675, 0.73701423, 0.76536095, 0.79370767, 0.79370767, 0.79370767, 0.79370767, 0.79370767, 0.79370767, 0.79370767, 0.79370767, 0.79370767, 0.76536095, 0.76536095, 0.6803208, 0.6236274, 0.5102406, 0.3401604, 0.2551203, 0.1700802, 0.1133868, 0.0850401, 0.0283467, 0.0283467, 0.0, 0.0, 0.0, -0.0283467, -0.0283467, -0.0566934, -0.0566934, -0.0566934, -0.0850401, -0.0850401, -0.1133868, -0.14173351, -0.1700802, -0.1700802, -0.1700802, -0.1700802, -0.1700802, -0.1700802, -0.1700802, -0.1700802, -0.1700802, -0.1700802, -0.1700802, -0.1700802, -0.1700802, -0.1700802, -0.1700802, -0.1700802, -0.1700802, -0.1700802];[0.0039048001635819674, 0.019384999992325902, 0.03609890001825988, 0.05314079998061061, 0.06939089996740222, 0.08611749997362494, 0.1023335000500083, 0.12006100011058152, 0.13592330017127097, 0.15345280012115836, 0.17091200011782348, 0.18612910015508533, 0.2013681000098586, 0.21950020012445748, 0.23380960011854768, 0.25157060008496046, 0.26813760004006326, 0.2850876001175493, 0.3018396000843495, 0.32069470011629164, 0.3357437001541257, 0.3533130001742393, 0.3685860000550747, 0.3873746001627296, 0.4024233999662101, 0.41977909998968244, 0.43599930009804666, 0.4531596000306308, 0.46961160004138947, 0.4860018000472337, 0.5028532000724226, 0.5207130999770015, 0.535690400050953, 0.5536958000157028, 0.5689889001660049, 0.5873010000213981, 0.6025011001620442, 0.6205182999838144, 0.6354686000850052, 0.652542500058189, 0.6692329000215977, 0.6871713001746684, 0.7027756001334637, 0.720024400157854, 0.736376800108701, 0.7515360000543296, 0.7695148000493646, 0.7863094999920577, 0.802537800045684, 0.82071220013313, 0.8360423999838531, 0.8530829001683742, 0.8695321001578122, 0.8870924999937415, 0.9023812001105398, 0.9204492000862956, 0.9353412999771535, 0.9535607001744211, 0.9690576000139117, 0.9868050999939442, 1.0029792001005262, 1.0191915000323206, 1.0365238999947906, 1.0538011000026017, 1.0704424001742154, 1.087038000114262, 1.1025598000269383, 1.1199297001585364, 1.1352160000242293, 1.152687800116837, 1.1693329000845551, 1.1873810000251979, 1.2020394999999553, 1.2203848001081496, 1.23550990014337, 1.2523217000998557, 1.2693473000545055, 1.285841500153765, 1.3023034001234919, 1.3200505001004785, 1.3357764000538737, 1.3526850000489503, 1.368949200026691, 1.3871468000579625, 1.402336300117895, 1.4204739001579583, 1.4356627000961453, 1.4511748000513762, 1.4692657000850886, 1.4856223000679165, 1.5027744001708925, 1.5198662001639605, 1.5366030000150204, 1.5542707999702543, 1.5685495999641716, 1.5857075001113117, 1.6021710999775678, 1.6204252000898123, 1.6355342001188546, 1.6536660999991, 1.6698068999685347, 1.6873820000328124, 1.7034334000200033, 1.7199348001740873, 1.7363273999653757, 1.7530390000902116, 1.769592500058934, 1.7867173000704497, 1.8021309999749064, 1.8196169000584632, 1.835824599955231, 1.8527575000189245, 1.8692199001088738, 1.886527300113812, 1.9021614000666887, 1.9192614001221955, 1.9365920999553055, 1.9536111000925303, 1.9691143000964075, 1.9868212000001222, 2.0024960001464933, 2.0200628000311553, 2.035234299954027, 2.052777500124648, 2.06851560017094, 2.086432400159538, 2.102168400073424, 2.120138900121674, 2.136228500166908, 2.1542287000920624, 2.168118700152263, 2.1870891000144184, 2.2016613001469523, 2.218549400102347, 2.236833400093019, 2.2520049000158906, 2.267939700046554, 2.285848200088367, 2.3015873001422733, 2.3196189999580383, 2.3350269000511616, 2.351820700103417, 2.3701321999542415, 2.3861430999822915, 2.4021155000664294, 2.419246600009501, 2.435476199956611, 2.4522816000971943, 2.468117000069469, 2.4853048999793828, 2.5023020000662655, 2.5197995000053197, 2.5348408999852836, 2.552444800036028, 2.568277900107205, 2.586893399944529, 2.6037268000654876, 2.617811700096354, 2.6360808999743313, 2.652251100167632, 2.6673382001463324, 2.685932000167668, 2.7001724999863654, 2.718802700052038, 2.735136300092563, 2.7514599000569433, 2.7697010999545455, 2.7864000000990927, 2.800467499997467, 2.818756800144911, 2.8335482999682426, 2.8518040000926703, 2.868535300018266, 2.8850273999851197, 2.902043200097978, 2.919514700071886, 2.9354705000296235, 2.9522490999661386, 2.9695105999708176, 2.98670840007253, 3.0035056001506746, 3.018377900123596, 3.0352321001701057, 3.0530056001152843, 3.067494499962777, 3.088278700131923, 3.101265399949625, 3.119339399971068, 3.1343449000269175, 3.1519009999465197, 3.1681772000156343, 3.1861356999725103, 3.201048100134358, 3.2186353001743555, 3.2341478001326323, 3.2522515000309795, 3.2688697001431137, 3.286832100013271, 3.301060999976471, 3.3199738999828696, 3.335496800020337, 3.353600900154561, 3.3688306000549346, 3.3847994999960065, 3.401025600032881, 3.418109300080687, 3.4358264999464154, 3.4528959000017494, 3.4688476000446826, 3.4869793001562357]
S15;7;0;0;1;False;3000;True;;8;-36.84322913116029;drag;L;4.620512;-3.2882173;-35.44;5.67;2.2328405000735074;2.2329291000496596;1686212234.1725724;1686212234.1780674;1686212234.933829;1686212235.434123;1686212238.4331014;1686212240.6660724;[0.0, 0.0, 0.0, 0.0, 0.0, 0.0, 0.0, 0.0, 0.0, 0.0, 0.0, 0.0, 0.0, 0.0, 0.0, 0.0, 0.0, 0.0, 0.0, 0.0, 0.0, 0.0, 0.0, 0.0, 0.0, 0.0, 0.0, 0.0, 0.0, 0.0, 0.0, 0.0, 0.0, 0.0, 0.0, 0.0, 0.0, 0.0, 0.0, 0.0, 0.0, 0.0, 0.0, 0.0, 0.0, 0.0, 0.0, 0.0, 0.0, 0.0, 0.0, 0.0, 0.0, 0.1133868, 0.3401604, 0.56693405, 0.76536095, 1.1622148, 1.3889884, 1.5307219, 1.6724553, 1.7574955, 1.8425356, 1.9275757, 2.012616, 2.1260026, 2.211043, 2.2960827, 2.4094696, 2.4378164, 2.4945097, 2.5228565, 2.57955, 2.7212832, 2.83467, 2.9764037, 3.1748307, 3.2882173, 3.4582977, 3.5433376, 3.7417645, 3.8268046, 3.8834982, 3.9401915, 3.996885, 4.025232, 4.081925, 4.1386185, 4.1953115, 4.2803516, 4.3086987, 4.365392, 4.3937387, 4.422086, 4.422086, 4.4504323, 4.4504323, 4.4504323, 4.4504323, 4.4504323, 4.4504323, 4.4504323, 4.4504323, 4.478779, 4.5071254, 4.5071254, 4.5071254, 4.5354724, 4.5354724, 4.5921655, 4.620512, 4.620512, 4.620512, 4.620512, 4.620512, 4.620512, 4.620512, 4.620512, 4.620512, 4.620512, 4.620512, 4.620512, 4.620512, 4.620512, 4.620512, 4.620512, 4.620512, 4.620512, 4.620512, 4.620512, 4.620512, 4.620512, 4.620512, 4.620512];[0.0, 0.0, 0.0, 0.0, 0.0, 0.0, 0.0, 0.0, 0.0, 0.0, 0.0, 0.0, 0.0, 0.0, 0.0, 0.0, 0.0, 0.0, 0.0, 0.0, 0.0, 0.0, 0.0, 0.0, 0.0, 0.0, 0.0, 0.0, 0.0, 0.0, 0.0, 0.0, 0.0, 0.0, 0.0, 0.0, 0.0, 0.0, 0.0, 0.0, 0.0, 0.0, 0.0, 0.0, 0.0, 0.0, 0.0, 0.0, 0.0, 0.0, 0.0, 0.0, 0.0, -0.0283467, -0.19842692, -0.36850712, -0.48189393, -0.76536095, -0.93544114, -1.0488279, -1.1338681, -1.1905615, -1.2472548, -1.332295, -1.3889884, -1.5307219, -1.5874153, -1.7008021, -1.8141888, -1.8425356, -1.9275757, -1.9559225, -2.012616, -2.1260026, -2.2393894, -2.381123, -2.57955, -2.66459, -2.8630168, -3.0047503, -3.2031772, -3.2882173, -3.3732576, -3.4299507, -3.4866443, -3.514991, -3.5433376, -3.6000311, -3.6283777, -3.713418, -3.7417645, -3.770111, -3.798458, -3.798458, -3.8268046, -3.8268046, -3.8268046, -3.8268046, -3.798458, -3.798458, -3.7417645, -3.713418, -3.6850712, -3.6567245, -3.5716846, -3.514991, -3.4299507, -3.3732576, -3.316564, -3.2598708, -3.2315238, -3.2315238, -3.2315238, -3.2315238, -3.2315238, -3.2315238, -3.2315238, -3.2315238, -3.2315238, -3.2598708, -3.2598708, -3.2882173, -3.2882173, -3.2882173, -3.2882173, -3.2882173, -3.2882173, -3.2882173, -3.2882173, -3.2882173, -3.2882173, -3.2882173, -3.2882173, -3.2882173];[0.003983000060543418, 0.016055800020694733, 0.0323944000992924, 0.0500046000815928, 0.06868940009735525, 0.08375470014289021, 0.10172350006178021, 0.11669830000028014, 0.13357660011388361, 0.1497057001106441, 0.16858049994334579, 0.18413710012100637, 0.19980400009080768, 0.21699850005097687, 0.2343494000378996, 0.25015500001609325, 0.2672494000289589, 0.28353730007074773, 0.3019306000787765, 0.3170523000881076, 0.3343706000596285, 0.3502857000567019, 0.3677877001464367, 0.38425320014357567, 0.4013034999370575, 0.41601990000344813, 0.4353014000225812, 0.45006270008161664, 0.467905200086534, 0.4826547000557184, 0.5027795000933111, 0.5161081000696868, 0.5335433001164347, 0.5510857000481337, 0.5674485999625176, 0.5838854000903666, 0.6008562999777496, 0.6180724001023918, 0.6352830000687391, 0.6515659000724554, 0.6678039999678731, 0.6851772000081837, 0.7010302999988198, 0.7161846000235528, 0.7340822000987828, 0.7508913001511246, 0.7670583999715745, 0.7835200999397784, 0.8014833000488579, 0.8171482000034302, 0.8343132000882179, 0.8505546001251787, 0.8674502000212669, 0.8812208999879658, 0.8993057999759912, 0.9152997999917716, 0.9341971001122147, 0.9502509001176804, 0.965679100016132, 0.9831687000114471, 1.000634599942714, 1.0165752000175416, 1.0352443000301719, 1.0481017001438886, 1.0676822001114488, 1.0826818000059575, 1.0992115000262856, 1.1150050000287592, 1.1335524001624435, 1.1491539000999182, 1.1682132000569254, 1.182548000011593, 1.2007605000399053, 1.2160259999800473, 1.2343415999785066, 1.2501244000159204, 1.26622510002926, 1.2827178000006825, 1.3011872000060976, 1.3159891001414508, 1.3365325999911875, 1.3494735001586378, 1.3662052999716252, 1.3822491001337767, 1.399609100073576, 1.4167031000833958, 1.4347840000409633, 1.4487922000698745, 1.4680823001544923, 1.4833385001402348, 1.5007466999813914, 1.5169110000133514, 1.5336711001582444, 1.5496577001176775, 1.5684174001216888, 1.5837563001550734, 1.601297500077635, 1.614858000073582, 1.6328943001572043, 1.6490897999610752, 1.6667571000289172, 1.681748100090772, 1.7015597000718117, 1.715507599990815, 1.7374634000007063, 1.7512797000817955, 1.7690249001607299, 1.7842816000338644, 1.8005834000650793, 1.8159292000345886, 1.8357977999839932, 1.8498299999628216, 1.8694653001148254, 1.8836495999712497, 1.9019057999830693, 1.9161326000466943, 1.933415099978447, 1.9502395000308752, 1.9679197000805289, 1.9834851000923663, 2.0009421999566257, 2.0168560999445617, 2.0340527000371367, 2.0485956999473274, 2.0679419999942183, 2.0837253001518548, 2.1007906999439, 2.1182699999772012, 2.13441210007295, 2.150463700061664, 2.1679486001376063, 2.184485800098628, 2.200124300085008, 2.2169429000932723]
S15;8;0;0;1;False;3000;True;;8;159.11702579764648;drag;L;-5.3858733;2.8630168;152.01;6.1;1.8479611999355257;1.848063200013712;1686212241.3467438;1686212241.3607724;1686212242.115036;1686212242.6157267;1686212245.6169686;1686212247.4645922;[0.0, 0.0, 0.0, 0.0, 0.0, 0.0, 0.0, 0.0, 0.0, 0.0, 0.0, 0.0, 0.0, 0.0, 0.0, 0.0, 0.0, 0.0, 0.0, 0.0, 0.0, 0.0, 0.0, 0.0, 0.0, 0.0, 0.0, 0.0, 0.0, 0.0, 0.0, 0.0, 0.0, 0.0, 0.0, 0.0, 0.0, 0.0, 0.0, 0.0, 0.0, 0.0, 0.0, 0.0, 0.0, 0.0, 0.0, 0.0, 0.0, 0.0, -0.48189393, -0.79370767, -0.96378785, -1.2189082, -1.332295, -1.4456817, -1.5307219, -1.5874153, -1.6157619, -1.6724553, -1.7291489, -1.8141888, -1.899229, -2.012616, -2.0693092, -2.1260026, -2.182696, -2.2960827, -2.4094696, -2.7496302, -2.9764037, -3.1748307, -3.4016042, -3.5716846, -3.968538, -4.252005, -4.4504323, -4.5921655, -4.648859, -4.7055526, -4.762246, -4.7905927, -4.7905927, -4.875633, -4.932326, -4.960673, -5.017366, -5.0740595, -5.1591, -5.215793, -5.300833, -5.3575263, -5.3858733, -5.41422, -5.41422, -5.41422, -5.41422, -5.41422, -5.41422, -5.41422, -5.41422, -5.3858733, -5.3858733, -5.3858733, -5.3858733, -5.3858733, -5.3858733, -5.3858733, -5.3858733, -5.3858733];[0.0, 0.0, 0.0, 0.0, 0.0, 0.0, 0.0, 0.0, 0.0, 0.0, 0.0, 0.0, 0.0, 0.0, 0.0, 0.0, 0.0, 0.0, 0.0, 0.0, 0.0, 0.0, 0.0, 0.0, 0.0, 0.0, 0.0, 0.0, 0.0, 0.0, 0.0, 0.0, 0.0, 0.0, 0.0, 0.0, 0.0, 0.0, 0.0, 0.0, 0.0, 0.0, 0.0, 0.0, 0.0, 0.0, 0.0, 0.0, 0.0, 0.0, 0.36850712, 0.59528077, 0.76536095, 1.0204812, 1.1622148, 1.332295, 1.5023751, 1.5590686, 1.6157619, 1.7008021, 1.7574955, 1.8425356, 1.899229, 1.984269, 2.012616, 2.0409625, 2.0693092, 2.0693092, 2.0693092, 2.1260026, 2.1543493, 2.182696, 2.2677362, 2.2960827, 2.4378164, 2.4945097, 2.57955, 2.6362433, 2.66459, 2.66459, 2.6929367, 2.6929367, 2.6929367, 2.7496302, 2.7496302, 2.7496302, 2.7496302, 2.7496302, 2.7779768, 2.7779768, 2.8063235, 2.8063235, 2.83467, 2.83467, 2.8630168, 2.8630168, 2.8630168, 2.8630168, 2.8630168, 2.8630168, 2.8630168, 2.8630168, 2.8630168, 2.8630168, 2.8630168, 2.8630168, 2.8630168, 2.8630168, 2.8630168, 2.8630168];[0.0053889998234808445, 0.031668299809098244, 0.05143109988421202, 0.06666849995963275, 0.08243299997411668, 0.10005509993061423, 0.11612879997119308, 0.1336676999926567, 0.1505765998736024, 0.16648809984326363, 0.18343159998767078, 0.19917189981788397, 0.21569159999489784, 0.23271289980039, 0.25118949986062944, 0.26622190000489354, 0.28510569990612566, 0.30006369994953275, 0.3172631999477744, 0.3341446998529136, 0.35124269989319146, 0.3670700998045504, 0.3841923999134451, 0.39901859988458455, 0.4182366000022739, 0.4331639998126775, 0.45190889993682504, 0.46661489992402494, 0.483815899817273, 0.5004867999814451, 0.5178532998543233, 0.5339581000152975, 0.5513358998578042, 0.5663921998348087, 0.585239099804312, 0.5997420998755842, 0.6180672999471426, 0.6341097999829799, 0.6503138998523355, 0.6673049998935312, 0.6847714998293668, 0.700035999994725, 0.7176436998415738, 0.732944899937138, 0.7508053998462856, 0.765373099828139, 0.7837949998211116, 0.8015587998088449, 0.8164815998170525, 0.8332930998876691, 0.8516637999564409, 0.865648299921304, 0.8825324999634176, 0.9006548000033945, 0.9156656998675317, 0.9315507998690009, 0.950009899912402, 0.9663829000201076, 0.9827186998445541, 0.9990784998517483, 1.0158634998369962, 1.0333016999065876, 1.0499509000219405, 1.0687198999803513, 1.0831523998640478, 1.098430800018832, 1.11620599986054, 1.1319806999526918, 1.1506973998621106, 1.167648799950257, 1.1844647999387234, 1.1992416998837143, 1.2162037999369204, 1.2319531999528408, 1.2512957998551428, 1.2659175998996943, 1.2843706998974085, 1.3005607998929918, 1.3176382000092417, 1.3334792000241578, 1.3499035998247564, 1.3671808999497443, 1.383224599994719, 1.3997388000134379, 1.4168504998087883, 1.4342284000013024, 1.4489011999685317, 1.4674920998513699, 1.482939099892974, 1.4989151998888701, 1.519522399874404, 1.5324800999369472, 1.5499332998879254, 1.566554999910295, 1.5831571999005973, 1.601003099931404, 1.616844299947843, 1.63234160002321, 1.6501432999502867, 1.6659862999804318, 1.6832862999290228, 1.6989092999137938, 1.716044900007546, 1.7329725997988135, 1.7503940998576581, 1.7662629999686033, 1.7840555999428034, 1.7993230000138283, 1.8161178999580443, 1.8326248999219388]
S15;9;0;0;1;False;1000;True;;8;-149.74827454235358;drag;L;-6.9732885;-3.996885;-150.18;8.04;2.0324990001972765;2.032608399866149;1686212248.3419888;1686212248.360696;1686212249.115814;1686212249.6170347;1686212250.598429;1686212252.6307366;[0.0, 0.0, 0.0, 0.0, 0.0, 0.0, 0.0, 0.0, 0.0, 0.0, 0.0, 0.0, 0.0, 0.0, 0.0, 0.0, 0.0, 0.0, 0.0, 0.0, 0.0, 0.0, 0.0, 0.0, 0.0, 0.0, 0.0, 0.0, 0.0, 0.0, 0.0, 0.0, 0.0, 0.0, 0.0, 0.0, 0.0, 0.0, 0.0, 0.0, 0.0, 0.0, 0.0, 0.0, 0.0, 0.0, 0.0, 0.0, 0.0, 0.0, 0.0, 0.0, 0.0, 0.0, 0.0, 0.0, 0.0, 0.0, 0.0, 0.0, 0.0, 0.0, 0.0, 0.0, 0.0, 0.0, 0.0, -1.5023751, -3.3449106, -3.6567245, -3.7417645, -3.8268046, -3.9401915, -4.3937387, -4.762246, -4.960673, -5.1024065, -5.130753, -5.1874466, -5.2441397, -5.300833, -5.3575263, -5.3858733, -5.4425664, -5.4709134, -5.5843005, -5.75438, -5.811074, -5.896114, -6.037847, -6.151234, -6.321315, -6.5197415, -6.6047816, -6.6614747, -6.774862, -6.831555, -6.8599014, -6.9165955, -6.9165955, -6.944942, -6.9732885, -6.9732885, -6.9732885, -6.9732885, -6.9732885, -6.9732885, -6.9732885, -6.9732885, -6.9732885, -6.9732885, -6.9732885, -6.9732885, -6.9732885, -6.9732885, -6.9732885, -6.9732885, -6.9732885, -6.9732885, -6.9732885, -6.9732885, -6.9732885];[0.0, 0.0, 0.0, 0.0, 0.0, 0.0, 0.0, 0.0, 0.0, 0.0, 0.0, 0.0, 0.0, 0.0, 0.0, 0.0, 0.0, 0.0, 0.0, 0.0, 0.0, 0.0, 0.0, 0.0, 0.0, 0.0, 0.0, 0.0, 0.0, 0.0, 0.0, 0.0, 0.0, 0.0, 0.0, 0.0, 0.0, 0.0, 0.0, 0.0, 0.0, 0.0, 0.0, 0.0, 0.0, 0.0, 0.0, 0.0, 0.0, 0.0, 0.0, 0.0, 0.0, 0.0, 0.0, 0.0, 0.0, 0.0, 0.0, 0.0, 0.0, 0.0, 0.0, 0.0, 0.0, 0.0, 0.0, -0.96378785, -1.899229, -2.0409625, -2.0976558, -2.0976558, -2.1543493, -2.3527763, -2.5228565, -2.6362433, -2.6929367, -2.6929367, -2.6929367, -2.7212832, -2.7212832, -2.7212832, -2.7212832, -2.7212832, -2.7496302, -2.7779768, -2.7779768, -2.8063235, -2.83467, -2.9197102, -3.0330973, -3.1748307, -3.4016042, -3.514991, -3.6000311, -3.7417645, -3.798458, -3.8551514, -3.911845, -3.9401915, -3.9401915, -3.968538, -3.996885, -3.996885, -3.996885, -3.996885, -3.996885, -3.996885, -3.996885, -3.996885, -3.996885, -3.996885, -3.996885, -3.996885, -3.996885, -3.996885, -3.996885, -3.996885, -3.996885, -3.996885, -3.996885, -3.996885];[0.004910199902951717, 0.019083800027146935, 0.03354019997641444, 0.05178029998205602, 0.06985819991678, 0.08579589985311031, 0.09937729989178479, 0.11883139982819557, 0.13537419983185828, 0.15147969988174736, 0.1691817999817431, 0.18561479984782636, 0.2008761998731643, 0.2177535998634994, 0.23525549983605742, 0.2521533998660743, 0.26733329985290766, 0.2849880999419838, 0.30094180000014603, 0.3204870999325067, 0.3344982999842614, 0.35253839986398816, 0.36751240002922714, 0.38516409997828305, 0.4013679998461157, 0.4193472999613732, 0.4354071000125259, 0.45227889996021986, 0.46932679996825755, 0.48585699987597764, 0.5006928998045623, 0.5188456999603659, 0.5348016999196261, 0.5523983999155462, 0.568365499842912, 0.586420799838379, 0.6015657000243664, 0.6193403999786824, 0.634380699833855, 0.6528300999198109, 0.6675159998703748, 0.686452099820599, 0.7020538998767734, 0.7179900999180973, 0.7346953998785466, 0.7522242998238653, 0.7681819999124855, 0.786602099891752, 0.8002358998637646, 0.8182605998590589, 0.8346171998418868, 0.8517971998080611, 0.8680985998362303, 0.8863373999483883, 0.9010884999297559, 0.9193702000193298, 0.9351212999317795, 0.9521596999838948, 0.9671169000212103, 0.9848761998582631, 1.0001580999232829, 1.0174910000059754, 1.0337550998665392, 1.052520199911669, 1.0678290999494493, 1.085430599981919, 1.1002993998117745, 1.1176065998151898, 1.134348499821499, 1.150603799847886, 1.1693851999007165, 1.1846572998911142, 1.2007644998375326, 1.219950399827212, 1.235245699994266, 1.2512576999142766, 1.2678341998253018, 1.2844271999783814, 1.300921999849379, 1.317924699978903, 1.3343248998280615, 1.3516226999927312, 1.366224099881947, 1.3843789999373257, 1.4008202999830246, 1.4172443998977542, 1.4377490999177098, 1.4511214999947697, 1.4658663999289274, 1.4861202999018133, 1.5006013999227434, 1.517206999938935, 1.5349550999235362, 1.5505958998110145, 1.5678232999052852, 1.5839312998577952, 1.5994662998709828, 1.6168108999263495, 1.6342964000068605, 1.6515868999995291, 1.6685060998424888, 1.6836261998396367, 1.701415600022301, 1.7179002999328077, 1.7339013998862356, 1.751620199996978, 1.7672325999010354, 1.7840511999092996, 1.8005768000148237, 1.817308699944988, 1.833119799848646, 1.8506144999992102, 1.867939499905333, 1.8846407998353243, 1.9009223999455571, 1.9180653998628259, 1.9339588999282569, 1.9523733998648822, 1.9681147998198867, 1.9852246998343617, 2.0000799000263214, 2.0177271999418736]
S15;10;0;0;1;False;1000;True;;8;-19.328627120749488;drag;L;6.5764346;-2.381123;-19.9;6.99;2.351814200170338;2.351907700067386;1686212253.3631546;1686212253.3762777;1686212254.1321275;1686212254.6320598;1686212255.6137006;1686212257.9658442;[0.0, 0.0, 0.0, 0.0, 0.0, 0.0, 0.0, 0.0, 0.0, 0.0, 0.0, 0.0, 0.0, 0.0, 0.0, 0.0, 0.0, 0.0, 0.0, 0.0, 0.0, 0.0, 0.0, 0.0, 0.0, 0.0, 0.0, 0.0, 0.0, 0.0, 0.0, 0.0, 0.0, 0.0, 0.0, 0.0, 0.0, 0.0, 0.0, 0.0, 0.0, 0.0, 0.0, 0.0, 0.0, 0.0, 0.0, 0.0, 0.0, 0.0, 0.0, 0.0, 0.0, 0.0, 0.0, 0.0, 0.0, 0.0, 0.0, 0.0, 0.19842692, 1.8425356, 2.6362433, 2.9764037, 3.2031772, 3.2882173, 3.4016042, 3.5716846, 3.6567245, 3.770111, 3.911845, 3.996885, 4.0535784, 4.110272, 4.1953115, 4.252005, 4.3086987, 4.422086, 4.4504323, 4.5071254, 4.5921655, 4.6772056, 4.818939, 5.045713, 5.215793, 5.41422, 5.4992604, 5.5843005, 5.66934, 5.7260337, 5.75438, 5.811074, 5.811074, 5.8394203, 5.8677673, 5.8677673, 5.924461, 5.9528074, 6.0095005, 6.0661945, 6.094541, 6.1228876, 6.1795807, 6.1795807, 6.1795807, 6.2362742, 6.2362742, 6.264621, 6.292968, 6.321315, 6.3496614, 6.3496614, 6.378008, 6.378008, 6.4063544, 6.4063544, 6.4063544, 6.434701, 6.4630475, 6.491395, 6.5197415, 6.548088, 6.5764346, 6.5764346, 6.5764346, 6.5764346, 6.5764346, 6.5764346, 6.5764346, 6.5764346, 6.5764346, 6.5764346, 6.5764346, 6.5764346, 6.5764346, 6.5764346, 6.5764346, 6.5764346, 6.5764346, 6.5764346, 6.5764346];[0.0, 0.0, 0.0, 0.0, 0.0, 0.0, 0.0, 0.0, 0.0, 0.0, 0.0, 0.0, 0.0, 0.0, 0.0, 0.0, 0.0, 0.0, 0.0, 0.0, 0.0, 0.0, 0.0, 0.0, 0.0, 0.0, 0.0, 0.0, 0.0, 0.0, 0.0, 0.0, 0.0, 0.0, 0.0, 0.0, 0.0, 0.0, 0.0, 0.0, 0.0, 0.0, 0.0, 0.0, 0.0, 0.0, 0.0, 0.0, 0.0, 0.0, 0.0, 0.0, 0.0, 0.0, 0.0, 0.0, 0.0, 0.0, 0.0, 0.0, -0.0566934, -0.6803208, -0.96378785, -1.1055214, -1.2189082, -1.2756016, -1.3039483, -1.3606416, -1.4456817, -1.4740285, -1.5590686, -1.5874153, -1.6157619, -1.6724553, -1.7008021, -1.7291489, -1.7858423, -1.8425356, -1.8708823, -1.8708823, -1.899229, -1.9559225, -1.984269, -2.0976558, -2.182696, -2.3244295, -2.4094696, -2.466163, -2.4945097, -2.5512033, -2.57955, -2.6078966, -2.6078966, -2.6362433, -2.6362433, -2.6362433, -2.6362433, -2.6362433, -2.6362433, -2.6362433, -2.6362433, -2.6362433, -2.6362433, -2.6362433, -2.6362433, -2.6362433, -2.6362433, -2.6078966, -2.6078966, -2.57955, -2.57955, -2.5512033, -2.5512033, -2.5512033, -2.5512033, -2.5228565, -2.5228565, -2.5228565, -2.4945097, -2.466163, -2.4094696, -2.4094696, -2.381123, -2.381123, -2.381123, -2.381123, -2.381123, -2.381123, -2.381123, -2.381123, -2.381123, -2.381123, -2.381123, -2.381123, -2.381123, -2.381123, -2.381123, -2.381123, -2.381123, -2.381123, -2.381123];[0.003795800032094121, 0.01962090004235506, 0.034846199909225106, 0.052351699909195304, 0.0681988000869751, 0.08594699995592237, 0.1029675998724997, 0.1209235000424087, 0.13428999995812774, 0.1513982000760734, 0.169392199954018, 0.18646869994699955, 0.20101389987394214, 0.21984359994530678, 0.2339751000981778, 0.2538441000506282, 0.2684847000055015, 0.28551360010169446, 0.30200699996203184, 0.3190444998908788, 0.3349558999761939, 0.35233019990846515, 0.36810089997015893, 0.3852512000594288, 0.4031322000082582, 0.4186809998936951, 0.43573260004632175, 0.4523340000305325, 0.46859499998390675, 0.4866482000797987, 0.5018231999129057, 0.51900490000844, 0.5363133000209928, 0.553344199899584, 0.5695519000291824, 0.587006599875167, 0.6014582999050617, 0.6196475999895483, 0.635998799931258, 0.6523096000310034, 0.669866899959743, 0.6865954999811947, 0.7020674000959843, 0.7201254998799413, 0.7354413000866771, 0.753701499896124, 0.7692861000541598, 0.7869186999741942, 0.8028835000004619, 0.81938900006935, 0.8362547000870109, 0.8534673999529332, 0.8686112000141293, 0.8861088000703603, 0.902009200071916, 0.9192119999788702, 0.9362268000841141, 0.9514514999464154, 0.9682457998860627, 0.9851299999281764, 1.002123799873516, 1.0199539999011904, 1.0343494000844657, 1.0512000999879092, 1.0697071000467986, 1.0850468000862747, 1.10170380002819, 1.1188974999822676, 1.1345142000354826, 1.1528169999364763, 1.1677258999552578, 1.1865683000069112, 1.2028717999346554, 1.2188432000111789, 1.2384550001006573, 1.252454400062561, 1.2675208998844028, 1.2870535999536514, 1.3007050000596792, 1.3190150000154972, 1.3361106000375003, 1.3513366000261158, 1.3674908000975847, 1.385642800014466, 1.4014755000825971, 1.4208662000019103, 1.4347961000166833, 1.45140550006181, 1.4673122998792678, 1.4839027998968959, 1.502685199957341, 1.517586800036952, 1.5329863999504596, 1.5530826998874545, 1.5675168000161648, 1.5848576999269426, 1.6016540999989957, 1.618042099988088, 1.634444799972698, 1.6528684999793768, 1.6679829999338835, 1.6859440000262111, 1.7016773000359535, 1.7182930000126362, 1.7348271999508142, 1.7519300000276417, 1.7686340000946075, 1.7850450999103487, 1.8015942999627441, 1.820047500077635, 1.83422839990817, 1.8522262999322265, 1.868363499874249, 1.884281599894166, 1.9012585999444127, 1.9188912000972778, 1.9345591000746936, 1.9533728999085724, 1.9677285999059677, 1.9858335999306291, 2.003067000070587, 2.018238899996504, 2.0340835999231786, 2.051333799958229, 2.067098299972713, 2.086089799879119, 2.1023150000255555, 2.1193198999390006, 2.1351326000876725, 2.1522649999242276, 2.1677369999233633, 2.186431000009179, 2.201373199932277, 2.220030500087887, 2.2350874999538064, 2.2513506999239326, 2.2692023999989033, 2.285979100037366, 2.3011165999341756, 2.3196882000193, 2.3335647000931203]
S15;11;0;0;1;False;3000;True;;8;-95.45497699989942;drag;L;-0.8220543;-6.633128;-97.06;6.68;2.2998760999180377;2.299959500087425;1686212258.7435877;1686212258.7607043;1686212259.5139236;1686212260.016222;1686212263.0145695;1686212265.3151803;[0.0, 0.0, 0.0, 0.0, 0.0, 0.0, 0.0, 0.0, 0.0, 0.0, 0.0, 0.0, 0.0, 0.0, 0.0, 0.0, 0.0, 0.0, 0.0, 0.0, 0.0, 0.0, 0.0, 0.0, 0.0, 0.0, 0.0, 0.0, 0.0, 0.0, 0.0, 0.0, 0.0, 0.0, 0.0, 0.0, 0.0, 0.0, 0.0, 0.0, 0.0, 0.0, 0.0, 0.0, 0.0, 0.0, -0.0566934, -0.2267736, -0.36850712, -0.6803208, -0.9921345, -1.5307219, -1.7858423, -1.9559225, -2.1260026, -2.2677362, -2.4094696, -2.6362433, -2.7779768, -3.146484, -3.3449106, -3.4582977, -3.5433376, -3.5716846, -3.5716846, -3.514991, -3.4016042, -3.0614438, -2.8630168, -2.7496302, -2.6929367, -2.6078966, -2.5512033, -2.466163, -2.4094696, -2.381123, -2.3244295, -2.2393894, -2.0693092, -1.899229, -1.6157619, -1.6157619, -1.6157619, -1.6157619, -1.6157619, -1.6157619, -1.6157619, -1.6157619, -1.6157619, -1.6157619, -1.6157619, -1.6157619, -1.6157619, -1.6157619, -1.6157619, -1.6157619, -1.6157619, -1.6157619, -1.5307219, -1.4456817, -1.332295, -1.2756016, -1.2189082, -1.1905615, -1.1622148, -1.1338681, -1.1338681, -1.1338681, -1.1338681, -1.1338681, -1.1338681, -1.1338681, -1.1055214, -1.0771747, -1.0488279, -1.0488279, -1.0204812, -0.9921345, -0.96378785, -0.93544114, -0.9070944, -0.87874776, -0.85040104, -0.8220543, -0.8220543, -0.8220543, -0.8220543, -0.8220543, -0.8220543, -0.8220543, -0.8220543, -0.8220543, -0.8220543, -0.8220543, -0.8220543, -0.8220543, -0.8220543, -0.8220543];[0.0, 0.0, 0.0, 0.0, 0.0, 0.0, 0.0, 0.0, 0.0, 0.0, 0.0, 0.0, 0.0, 0.0, 0.0, 0.0, 0.0, 0.0, 0.0, 0.0, 0.0, 0.0, 0.0, 0.0, 0.0, 0.0, 0.0, 0.0, 0.0, 0.0, 0.0, 0.0, 0.0, 0.0, 0.0, 0.0, 0.0, 0.0, 0.0, 0.0, 0.0, 0.0, 0.0, 0.0, 0.0, 0.0, 0.0, -0.14173351, -0.28346702, -0.56693405, -0.87874776, -1.3606416, -1.6724553, -1.8708823, -2.0976558, -2.211043, -2.381123, -2.57955, -2.7496302, -3.1181371, -3.3732576, -3.5433376, -3.6567245, -3.713418, -3.798458, -3.911845, -4.110272, -4.5354724, -4.7905927, -4.875633, -4.9890194, -5.0740595, -5.130753, -5.2441397, -5.300833, -5.32918, -5.3858733, -5.41422, -5.527607, -5.697687, -5.9528074, -5.9528074, -5.9528074, -5.9528074, -5.9528074, -5.9528074, -5.9528074, -5.9528074, -5.9528074, -5.9528074, -5.9528074, -5.9528074, -5.9528074, -5.9528074, -5.9528074, -5.9528074, -5.9528074, -5.9528074, -6.037847, -6.094541, -6.1795807, -6.2362742, -6.264621, -6.321315, -6.321315, -6.321315, -6.321315, -6.321315, -6.321315, -6.321315, -6.321315, -6.3496614, -6.3496614, -6.378008, -6.434701, -6.434701, -6.4630475, -6.491395, -6.5197415, -6.548088, -6.5764346, -6.6047816, -6.6047816, -6.633128, -6.633128, -6.633128, -6.633128, -6.633128, -6.633128, -6.633128, -6.633128, -6.633128, -6.633128, -6.633128, -6.633128, -6.633128, -6.633128, -6.633128];[0.0038102001417428255, 0.016932700062170625, 0.03531000018119812, 0.050528099993243814, 0.06816620007157326, 0.08370320009998977, 0.10327900014817715, 0.11700180009938776, 0.1348977000452578, 0.15020110015757382, 0.1680272000376135, 0.1844870001077652, 0.19992550020106137, 0.2170116000343114, 0.2341038000304252, 0.2513969000428915, 0.26759030018001795, 0.284779499983415, 0.30118700000457466, 0.3175257002003491, 0.3354978000279516, 0.34937660000286996, 0.3673271001316607, 0.38312680018134415, 0.4007731000892818, 0.41689110011793673, 0.4347812000196427, 0.4500363999977708, 0.46712960000149906, 0.48352090013213456, 0.501246000174433, 0.5177591000683606, 0.5349936001002789, 0.5505752000026405, 0.5680802999995649, 0.5833116001449525, 0.6000487999990582, 0.6161398000549525, 0.6346768999937922, 0.6498699001967907, 0.6680861001368612, 0.6839017001911998, 0.7005278000142425, 0.7170987999998033, 0.734760400140658, 0.7501072001177818, 0.7679616000968963, 0.7837188001722097, 0.8018785000313073, 0.8167014000937343, 0.8343689001630992, 0.8523159001488239, 0.8668420000467449, 0.88465840020217, 0.9012100000400096, 0.9165140001568943, 0.9352451001759619, 0.950106400065124, 0.9689965001307428, 0.9846761000808328, 1.0017264999914914, 1.0176191001664847, 1.0349928000941873, 1.0499994000419974, 1.0701552000828087, 1.0821287999860942, 1.1009345001075417, 1.1189435000997037, 1.1341248000971973, 1.1515071000903845, 1.1680980999954045, 1.1839998001232743, 1.200853600166738, 1.2169086001813412, 1.234403100097552, 1.2498493001330644, 1.2676204000599682, 1.285257900133729, 1.3002220001071692, 1.315815000096336, 1.3361581000499427, 1.3503661002032459, 1.3688907001633197, 1.3842717001680285, 1.4028117000125349, 1.417542700190097, 1.4357385002076626, 1.4511212999932468, 1.4690887001343071, 1.4839955000206828, 1.5016234000213444, 1.5168360001407564, 1.534098400035873, 1.550988100003451, 1.5681385002098978, 1.584375699982047, 1.6004839001689106, 1.6167092001996934, 1.636379700154066, 1.6509153000079095, 1.6667281000409275, 1.6839928000699729, 1.7017458002083004, 1.7175829000771046, 1.7342964999843389, 1.7507790999952704, 1.768782300176099, 1.7837671001907438, 1.8019246000330895, 1.8179209001827985, 1.8339972000103444, 1.8501465001609176, 1.8691767000127584, 1.8832031001802534, 1.9014811001252383, 1.9175410000607371, 1.9336113000754267, 1.9504663001280278, 1.966793900122866, 1.9826797000132501, 2.001406100112945, 2.016469500027597, 2.034439900191501, 2.049888900015503, 2.065987000009045, 2.0828816001303494, 2.099967800080776, 2.116195400012657, 2.135764200007543, 2.150077600032091, 2.1690436000935733, 2.1832906000781804, 2.2019970000255853, 2.2180073000490665, 2.2355394000187516, 2.250317200087011, 2.268230800051242, 2.2837461000308394]
S15;12;0;0;1;False;1000;True;;8;173.97190012755073;drag;L;-7.596916;0.0;180.0;7.6;3.650473800022155;3.650563199771568;1686212266.0618029;1686212266.076805;1686212266.8317142;1686212267.3329694;1686212268.313218;1686212271.964304;[0.0, 0.0, 0.0, 0.0, 0.0, 0.0, 0.0, 0.0, 0.0, 0.0, 0.0, 0.0, 0.0, 0.0, 0.0, 0.0, 0.0, 0.0, 0.0, 0.0, 0.0, 0.0, 0.0, 0.0, 0.0, 0.0, 0.0, 0.0, 0.0, 0.0, 0.0, 0.0, 0.0, 0.0, 0.0, 0.0, 0.0, 0.0, 0.0, 0.0, 0.0, 0.0, 0.0, 0.0, 0.0, 0.0, 0.0, 0.0, 0.0, 0.0, 0.0, 0.0, 0.0, 0.0, 0.0, 0.0, 0.0, 0.0, 0.0, 0.0, 0.0, 0.0, 0.0, 0.0, 0.0, 0.0, 0.0, 0.0, 0.0, 0.0, 0.0, 0.0, 0.0, 0.0, 0.0, 0.0, 0.0, 0.0, 0.0, 0.0, 0.0, 0.0, 0.0, 0.0, 0.0, 0.0, 0.0, 0.0, 0.0, 0.0, 0.0, 0.0, 0.0, 0.0, 0.0, 0.0, 0.0, 0.0, 0.0, 0.0, 0.0, 0.0, 0.0, 0.0, 0.0, 0.0, 0.0, 0.0, 0.0, -0.19842692, -0.73701423, -1.1055214, -1.2472548, -1.3889884, -1.4456817, -1.5307219, -1.5874153, -1.6724553, -1.7574955, -1.8141888, -1.899229, -1.9559225, -1.984269, -2.0409625, -2.0693092, -2.0693092, -2.0976558, -2.0976558, -2.1260026, -2.1260026, -2.1260026, -2.1543493, -2.4094696, -2.948057, -3.6567245, -4.563819, -5.0740595, -5.6409936, -5.782727, -5.8394203, -5.896114, -5.924461, -5.924461, -5.9528074, -5.981154, -6.037847, -6.0661945, -6.094541, -6.151234, -6.2079277, -6.264621, -6.633128, -6.831555, -7.029982, -7.086675, -7.2000623, -7.2567554, -7.3701425, -7.426836, -7.5118756, -7.540222, -7.5685697, -7.5685697, -7.596916, -7.596916, -7.596916, -7.596916, -7.596916, -7.596916, -7.596916, -7.596916, -7.596916, -7.596916, -7.596916, -7.596916, -7.596916, -7.596916, -7.596916, -7.596916, -7.596916, -7.596916, -7.596916, -7.596916, -7.596916, -7.596916, -7.596916, -7.596916, -7.596916, -7.596916, -7.596916, -7.596916, -7.596916, -7.596916, -7.596916, -7.596916, -7.596916, -7.596916, -7.596916, -7.596916, -7.596916, -7.596916, -7.596916, -7.596916, -7.596916, -7.596916, -7.596916, -7.596916, -7.596916, -7.596916, -7.596916, -7.596916, -7.596916, -7.596916, -7.596916, -7.596916, -7.596916, -7.596916, -7.596916, -7.596916];[0.0, 0.0, 0.0, 0.0, 0.0, 0.0, 0.0, 0.0, 0.0, 0.0, 0.0, 0.0, 0.0, 0.0, 0.0, 0.0, 0.0, 0.0, 0.0, 0.0, 0.0, 0.0, 0.0, 0.0, 0.0, 0.0, 0.0, 0.0, 0.0, 0.0, 0.0, 0.0, 0.0, 0.0, 0.0, 0.0, 0.0, 0.0, 0.0, 0.0, 0.0, 0.0, 0.0, 0.0, 0.0, 0.0, 0.0, 0.0, 0.0, 0.0, 0.0, 0.0, 0.0, 0.0, 0.0, 0.0, 0.0, 0.0, 0.0, 0.0, 0.0, 0.0, 0.0, 0.0, 0.0, 0.0, 0.0, 0.0, 0.0, 0.0, 0.0, 0.0, 0.0, 0.0, 0.0, 0.0, 0.0, 0.0, 0.0, 0.0, 0.0, 0.0, 0.0, 0.0, 0.0, 0.0, 0.0, 0.0, 0.0, 0.0, 0.0, 0.0, 0.0, 0.0, 0.0, 0.0, 0.0, 0.0, 0.0, 0.0, 0.0, 0.0, 0.0, 0.0, 0.0, 0.0, 0.0, 0.0, 0.0, 0.14173351, 0.5102406, 0.8220543, 0.93544114, 1.1338681, 1.1905615, 1.2756016, 1.332295, 1.3889884, 1.417335, 1.4740285, 1.5307219, 1.5307219, 1.5874153, 1.5874153, 1.6157619, 1.6441087, 1.6441087, 1.6441087, 1.6441087, 1.6441087, 1.6441087, 1.6441087, 1.5023751, 1.1905615, 0.85040104, 0.39685383, 0.19842692, 0.0, -0.0283467, -0.0566934, -0.0566934, -0.0566934, -0.0566934, -0.0566934, -0.0566934, -0.0283467, 0.0, 0.0283467, 0.0566934, 0.0850401, 0.0850401, 0.0566934, 0.0566934, 0.0, 0.0, 0.0, 0.0, 0.0, 0.0, 0.0, 0.0, 0.0, 0.0, 0.0, 0.0, 0.0, 0.0, 0.0, 0.0, 0.0, 0.0, 0.0, 0.0, 0.0, 0.0, 0.0, 0.0, 0.0, 0.0, 0.0, 0.0, 0.0, 0.0, 0.0, 0.0, 0.0, 0.0, 0.0, 0.0, 0.0, 0.0, 0.0, 0.0, 0.0, 0.0, 0.0, 0.0, 0.0, 0.0, 0.0, 0.0, 0.0, 0.0, 0.0, 0.0, 0.0, 0.0, 0.0, 0.0, 0.0, 0.0, 0.0, 0.0, 0.0, 0.0, 0.0, 0.0, 0.0, 0.0];[0.003306599799543619, 0.019591499818488955, 0.035043499898165464, 0.05252319993451238, 0.06925569986924529, 0.0862816998269409, 0.10262189991772175, 0.12086929986253381, 0.13491819985210896, 0.15300799999386072, 0.16778319980949163, 0.18672909983433783, 0.20107449986971915, 0.21997809992171824, 0.23502099979668856, 0.25356109999120235, 0.2678313998039812, 0.28611559979617596, 0.3022496998310089, 0.318686599843204, 0.335202099988237, 0.35314349993132055, 0.3690119998063892, 0.3866784998681396, 0.4019506999757141, 0.41990619990974665, 0.4348952998407185, 0.4522956998553127, 0.46783049986697733, 0.4863682999275625, 0.5024372998159379, 0.5190841997973621, 0.5352902999147773, 0.5533329998143017, 0.5689430998172611, 0.5867806999012828, 0.6024583999533206, 0.619884799933061, 0.6356053999625146, 0.6534706999082118, 0.6688573998399079, 0.6869932999834418, 0.7031950999516994, 0.7191488998942077, 0.7360816998407245, 0.7524210999254137, 0.7685740999877453, 0.7870168997906148, 0.8009924998041242, 0.8197326997760683, 0.8352656997740269, 0.8536303997971117, 0.8683816997800022, 0.8841712998691946, 0.9022846999578178, 0.9200175998266786, 0.9355940998066217, 0.9544953999575227, 0.9680207998026162, 0.9865770998876542, 1.0020794000010937, 1.0195451998151839, 1.0365203998517245, 1.0532903999555856, 1.0688825999386609, 1.0865383998025209, 1.1017292998731136, 1.120188299799338, 1.1355176998768002, 1.153130599996075, 1.1686439998447895, 1.1866663999389857, 1.201906899921596, 1.2197923997882754, 1.234830099856481, 1.2520529998000711, 1.2684323999565095, 1.2871228998992592, 1.3017453998327255, 1.3195762999821454, 1.3356245998293161, 1.352314599789679, 1.3690785998478532, 1.3865128997713327, 1.4013509999495, 1.4194805999286473, 1.434666199842468, 1.453929299954325, 1.468049599789083, 1.4860566998831928, 1.5021543998736888, 1.5194601998664439, 1.5350993999745697, 1.5530325998552144, 1.569098399952054, 1.585824399953708, 1.6019673999398947, 1.619783699978143, 1.6349846997763962, 1.6528895997907966, 1.6675911999773234, 1.6859295999165624, 1.7025867998600006, 1.718940599821508, 1.7355351999867707, 1.7511161000002176, 1.7677723998203874, 1.786323199979961, 1.8003796997945756, 1.8185558998957276, 1.8341652997769415, 1.850714299827814, 1.8677118998020887, 1.8847135999239981, 1.900829899823293, 1.91995619982481, 1.9339278999250382, 1.951790199847892, 1.9682577999774367, 1.9842206998728216, 2.0022882998455316, 2.0174329997971654, 2.0340594998560846, 2.053778499830514, 2.0671197997871786, 2.0836798998061568, 2.101804899983108, 2.1180026999209076, 2.13533389987424, 2.1520154997706413, 2.1674676998518407, 2.1861054999753833, 2.2006212999112904, 2.2177170999348164, 2.234797299839556, 2.2507551999296993, 2.2679431999567896, 2.2853543998207897, 2.3006160999648273, 2.319377299863845, 2.3347351998090744, 2.3533800998702645, 2.3686956998426467, 2.3853486999869347, 2.4021069000009447, 2.4184200998861343, 2.433540599886328, 2.452743899775669, 2.467851399909705, 2.485583699773997, 2.5012999998871237, 2.51793839992024, 2.5349665998946875, 2.553794799838215, 2.5664474999066442, 2.584931999910623, 2.600603399798274, 2.6175382998771966, 2.6348932997789234, 2.6512391997966915, 2.6678018998354673, 2.6854955998715013, 2.7006644997745752, 2.719382699811831, 2.733355199918151, 2.752524299779907, 2.7683640997856855, 2.784747099969536, 2.801190999802202, 2.8182637998834252, 2.833466799929738, 2.853537399787456, 2.867812299868092, 2.886821399908513, 2.9021338999737054, 2.919083499815315, 2.9352105997968465, 2.9535445999354124, 2.9675994999706745, 2.986456999788061, 3.001159799983725, 3.0198683999478817, 3.0351429998409003, 3.053092199843377, 3.068369099870324, 3.0855908999219537, 3.102043099934235, 3.1197989999782294, 3.1353596998378634, 3.1531524998135865, 3.169964499771595, 3.1858529997989535, 3.2029330998193473, 3.2194403999019414, 3.2353803999722004, 3.252883399836719, 3.269191099796444, 3.286021899897605, 3.3014018998946995, 3.3200290999375284, 3.3356847998220474, 3.352220199769363, 3.3682501998264343, 3.3862162998411804, 3.4017721998970956, 3.4204673999920487, 3.434306899784133, 3.4529733997769654, 3.468107199994847, 3.485925299813971, 3.502649099798873, 3.5194928999990225, 3.5344818998128176, 3.551448999904096, 3.5694466999266297, 3.5864298997912556, 3.6022432998288423, 3.6192089999094605, 3.634396799840033]
S15;13;0;0;1;False;3000;True;;8;143.13707565553517;drag;L;-5.045713;3.4016042;146.01;6.09;2.232615699991584;2.2329899999313056;1686212272.7295842;1686212272.7425902;1686212273.4968152;1686212274.0003896;1686212276.9975722;1686212279.230929;[0.0, 0.0, 0.0, 0.0, 0.0, 0.0, 0.0, 0.0, 0.0, 0.0, 0.0, 0.0, 0.0, 0.0, 0.0, 0.0, 0.0, 0.0, 0.0, 0.0, 0.0, 0.0, 0.0, 0.0, 0.0, 0.0, 0.0, 0.0, 0.0, 0.0, 0.0, 0.0, 0.0, 0.0, 0.0, 0.0, 0.0, 0.0, 0.0, 0.0, 0.0, 0.0, 0.0, 0.0, 0.0, 0.0, 0.0, 0.0, 0.0, 0.0, -0.14173351, -0.2551203, -0.42520052, -0.5102406, -0.59528077, -0.7086675, -0.8220543, -0.93544114, -1.0488279, -1.2472548, -1.3889884, -1.5307219, -1.7574955, -1.899229, -2.0976558, -2.2393894, -2.466163, -2.6929367, -2.948057, -3.2598708, -3.713418, -3.968538, -4.1953115, -4.3086987, -4.422086, -4.478779, -4.5071254, -4.5071254, -4.5071254, -4.5071254, -4.5071254, -4.5071254, -4.5071254, -4.5071254, -4.5071254, -4.5071254, -4.5071254, -4.5071254, -4.5071254, -4.5071254, -4.5071254, -4.5071254, -4.5071254, -4.5071254, -4.5354724, -4.5354724, -4.563819, -4.563819, -4.563819, -4.5921655, -4.5921655, -4.620512, -4.620512, -4.6772056, -4.7055526, -4.762246, -4.818939, -4.875633, -4.932326, -4.932326, -4.9890194, -5.017366, -5.017366, -5.017366, -5.017366, -5.045713, -5.045713, -5.045713, -5.045713, -5.045713, -5.045713, -5.045713, -5.045713, -5.045713, -5.045713, -5.045713, -5.045713, -5.045713, -5.045713, -5.045713, -5.045713, -5.045713, -5.045713, -5.045713];[0.0, 0.0, 0.0, 0.0, 0.0, 0.0, 0.0, 0.0, 0.0, 0.0, 0.0, 0.0, 0.0, 0.0, 0.0, 0.0, 0.0, 0.0, 0.0, 0.0, 0.0, 0.0, 0.0, 0.0, 0.0, 0.0, 0.0, 0.0, 0.0, 0.0, 0.0, 0.0, 0.0, 0.0, 0.0, 0.0, 0.0, 0.0, 0.0, 0.0, 0.0, 0.0, 0.0, 0.0, 0.0, 0.0, 0.0, 0.0, 0.0, 0.0850401, 0.42520052, 0.6236274, 0.8220543, 0.96378785, 1.0488279, 1.1622148, 1.2756016, 1.3606416, 1.4456817, 1.5307219, 1.5874153, 1.7008021, 1.7858423, 1.8425356, 1.9275757, 1.984269, 2.0976558, 2.182696, 2.2960827, 2.466163, 2.6362433, 2.66459, 2.7496302, 2.7496302, 2.7779768, 2.8063235, 2.8063235, 2.8063235, 2.8063235, 2.8063235, 2.8063235, 2.8063235, 2.8063235, 2.8063235, 2.8063235, 2.8063235, 2.8063235, 2.8063235, 2.8063235, 2.8063235, 2.8063235, 2.8063235, 2.8063235, 2.8063235, 2.83467, 2.83467, 2.8630168, 2.8630168, 2.8630168, 2.8630168, 2.8630168, 2.8630168, 2.8913634, 2.948057, 2.9764037, 3.0614438, 3.146484, 3.2031772, 3.2598708, 3.2882173, 3.3449106, 3.3449106, 3.3732576, 3.4016042, 3.4016042, 3.4016042, 3.4016042, 3.4016042, 3.4016042, 3.4016042, 3.4016042, 3.4016042, 3.4016042, 3.4016042, 3.4016042, 3.4016042, 3.4016042, 3.4016042, 3.4016042, 3.4016042, 3.4016042, 3.4016042, 3.4016042, 3.4016042];[0.004671999951824546, 0.01653310004621744, 0.03501660004258156, 0.05073420004919171, 0.06768890004605055, 0.08478499995544553, 0.09954020008444786, 0.11630319990217686, 0.13443310000002384, 0.15188480005599558, 0.16739799990318716, 0.18381320009939373, 0.20038919989019632, 0.21738009992986917, 0.23315800004638731, 0.250400299904868, 0.26747670001350343, 0.28430410008877516, 0.3015576999168843, 0.3165299999527633, 0.33385709999129176, 0.3507646000944078, 0.36837009992450476, 0.38386530010029674, 0.4025781999807805, 0.41687269997783005, 0.43473819992505014, 0.4506792000029236, 0.4680490999016911, 0.4841412000823766, 0.5012262999080122, 0.5158778999466449, 0.5356872999109328, 0.5503124999813735, 0.5672077001072466, 0.5831444000359625, 0.6013903999701142, 0.6163761999923736, 0.6357390999328345, 0.6498006999026984, 0.668276600074023, 0.6830428999383003, 0.7009501000866294, 0.7159565000329167, 0.7355192000977695, 0.7505661000031978, 0.7682340999599546, 0.78366669989191, 0.8001282999757677, 0.8181147999130189, 0.8351690000854433, 0.8492819000966847, 0.8690990000031888, 0.8836139999330044, 0.9006298999302089, 0.9169509001076221, 0.9336220999248326, 0.9494853001087904, 0.9661876000463963, 0.9822277000639588, 1.0013186000287533, 1.0162015000823885, 1.0343049999792129, 1.0505031000357121, 1.0670000999234617, 1.0830842999275774, 1.1015530999284238, 1.1155946999788284, 1.134345900034532, 1.1488268000539392, 1.1684717000462115, 1.1829995000734925, 1.1998360001016408, 1.216529899975285, 1.2343758998904377, 1.249523000093177, 1.267776899971068, 1.2833946999162436, 1.3005264000967145, 1.3176309000700712, 1.3349309999030083, 1.3503133000340313, 1.3686128999106586, 1.383269299985841, 1.4004053000826389, 1.4152492999564856, 1.4330299999564886, 1.4492198000662029, 1.4668980001006275, 1.4830483000259846, 1.5001153000630438, 1.5164606999605894, 1.5339627000503242, 1.5498293999116868, 1.5690814999397844, 1.5839384999126196, 1.60005549993366, 1.6155020999722183, 1.6345114998985082, 1.649969399906695, 1.667076899902895, 1.682633399963379, 1.7007408000063151, 1.7188782999292016, 1.733299900079146, 1.7491882001049817, 1.767901400104165, 1.7822561000939459, 1.8020124998874962, 1.8156844000332057, 1.833264800021425, 1.8493109000846744, 1.8666781999636441, 1.8834190999623388, 1.8999856000300497, 1.916022599907592, 1.935188400093466, 1.9491200000047684, 1.9681021999567747, 1.9837313001044095, 2.0004571999888867, 2.0164441999513656, 2.0344147998839617, 2.048891100101173, 2.068395199952647, 2.082406699890271, 2.1001317999325693, 2.117167100077495, 2.1351312999613583, 2.1501821000128984, 2.1670067000668496, 2.1831612000241876, 2.2020513000898063, 2.2160883999895304]
S15;14;0;0;1;False;1000;True;;8;129.66733761201323;drag;L;-3.7417645;4.733899;128.32;6.03;3.31680169980973;3.316897900076583;1686212279.9051616;1686212279.9078639;1686212280.6638775;1686212281.1648088;1686212282.1465676;1686212285.4629445;[0.0, 0.0, 0.0, 0.0, 0.0, 0.0, 0.0, 0.0, 0.0, 0.0, 0.0, 0.0, 0.0, 0.0, 0.0, 0.0, 0.0, 0.0, 0.0, 0.0, 0.0, 0.0, 0.0, 0.0, 0.0, 0.0, 0.0, 0.0, 0.0, 0.0, 0.0, 0.0, 0.0, 0.0, 0.0, 0.0, 0.0, 0.0, 0.0, 0.0, 0.0, 0.0, 0.0, 0.0, 0.0, 0.0, 0.0, 0.0, 0.0, 0.0, 0.0, 0.0, 0.0, 0.0, 0.0, 0.0, 0.0, 0.0, 0.0, 0.0, 0.0, 0.0, 0.0, 0.0, 0.0, 0.0, 0.0, 0.0, 0.0, 0.0, 0.0, 0.0, 0.0, 0.0, 0.0, 0.0, 0.0, 0.0, 0.0, 0.0, 0.0, 0.0, 0.0, 0.0, 0.0, 0.0, 0.0, 0.0, 0.0, 0.0, 0.0, 0.0, 0.0, 0.0, 0.0, 0.0, 0.0, 0.0, 0.4535472, 0.73701423, 0.87874776, 0.9921345, 1.0488279, 1.0771747, 1.0771747, 1.0771747, 1.0771747, 1.0771747, 0.9921345, 0.85040104, 0.6236274, 0.39685383, 0.3118137, 0.14173351, -0.0283467, -0.48189393, -1.7008021, -2.0976558, -2.466163, -2.6362433, -2.7779768, -2.948057, -3.0047503, -3.0614438, -3.0614438, -3.0614438, -3.0614438, -3.0614438, -3.0614438, -3.0614438, -3.0614438, -3.0614438, -3.0614438, -3.0614438, -3.0614438, -3.0614438, -3.0614438, -3.0614438, -3.0614438, -3.0614438, -3.0897903, -3.146484, -3.1748307, -3.2315238, -3.2598708, -3.2882173, -3.316564, -3.3732576, -3.3732576, -3.4299507, -3.4582977, -3.514991, -3.5433376, -3.6283777, -3.6567245, -3.6850712, -3.713418, -3.7417645, -3.7417645, -3.770111, -3.770111, -3.770111, -3.770111, -3.798458, -3.798458, -3.798458, -3.798458, -3.798458, -3.798458, -3.798458, -3.798458, -3.798458, -3.798458, -3.798458, -3.798458, -3.798458, -3.798458, -3.770111, -3.770111, -3.770111, -3.770111, -3.7417645, -3.7417645, -3.7417645, -3.7417645, -3.7417645, -3.7417645, -3.7417645, -3.7417645, -3.7417645, -3.7417645, -3.7417645, -3.7417645, -3.7417645, -3.7417645, -3.7417645, -3.7417645, -3.7417645, -3.7417645];[0.0, 0.0, 0.0, 0.0, 0.0, 0.0, 0.0, 0.0, 0.0, 0.0, 0.0, 0.0, 0.0, 0.0, 0.0, 0.0, 0.0, 0.0, 0.0, 0.0, 0.0, 0.0, 0.0, 0.0, 0.0, 0.0, 0.0, 0.0, 0.0, 0.0, 0.0, 0.0, 0.0, 0.0, 0.0, 0.0, 0.0, 0.0, 0.0, 0.0, 0.0, 0.0, 0.0, 0.0, 0.0, 0.0, 0.0, 0.0, 0.0, 0.0, 0.0, 0.0, 0.0, 0.0, 0.0, 0.0, 0.0, 0.0, 0.0, 0.0, 0.0, 0.0, 0.0, 0.0, 0.0, 0.0, 0.0, 0.0, 0.0, 0.0, 0.0, 0.0, 0.0, 0.0, 0.0, 0.0, 0.0, 0.0, 0.0, 0.0, 0.0, 0.0, 0.0, 0.0, 0.0, 0.0, 0.0, 0.0, 0.0, 0.0, 0.0, 0.0, 0.0, 0.0, 0.0, 0.0, 0.0, 0.0, 0.59528077, 0.96378785, 1.1338681, 1.332295, 1.4456817, 1.5590686, 1.6157619, 1.6441087, 1.7291489, 1.7574955, 1.8708823, 1.984269, 2.182696, 2.381123, 2.466163, 2.6078966, 2.7212832, 2.8913634, 3.2598708, 3.3732576, 3.5433376, 3.6283777, 3.713418, 3.798458, 3.8551514, 3.8551514, 3.8551514, 3.8551514, 3.8551514, 3.8551514, 3.8551514, 3.8551514, 3.8551514, 3.8551514, 3.8551514, 3.8551514, 3.8551514, 3.8551514, 3.8551514, 3.8551514, 3.8551514, 3.8551514, 3.9401915, 4.025232, 4.0535784, 4.110272, 4.166965, 4.2236586, 4.252005, 4.365392, 4.3937387, 4.5071254, 4.620512, 4.733899, 4.818939, 4.960673, 5.0740595, 5.1591, 5.215793, 5.2724867, 5.32918, 5.3575263, 5.3575263, 5.3575263, 5.3575263, 5.3575263, 5.3575263, 5.3575263, 5.3575263, 5.300833, 5.2724867, 5.2441397, 5.1591, 5.1024065, 5.0740595, 5.045713, 4.9890194, 4.960673, 4.932326, 4.875633, 4.875633, 4.847286, 4.818939, 4.818939, 4.7905927, 4.762246, 4.762246, 4.733899, 4.733899, 4.733899, 4.733899, 4.733899, 4.733899, 4.733899, 4.733899, 4.733899, 4.733899, 4.733899, 4.733899, 4.733899, 4.733899];[0.004540499998256564, 0.01815870008431375, 0.03332000016234815, 0.05253990017808974, 0.06718220002949238, 0.08568350016139448, 0.10076040006242692, 0.11857870011590421, 0.13400800013914704, 0.15211640018969774, 0.16832719999365509, 0.18574910005554557, 0.2008434000890702, 0.21899099997244775, 0.2336779001634568, 0.25186600000597537, 0.26756820012815297, 0.2847566001582891, 0.30143740004859865, 0.31847230019047856, 0.3335299000609666, 0.3527912001591176, 0.3687828001566231, 0.38395599997602403, 0.40349710010923445, 0.4188300999812782, 0.4354402001481503, 0.4522586001548916, 0.46827360009774566, 0.48547519999556243, 0.5015963001642376, 0.5191123001277447, 0.5340810001362115, 0.5521143001969904, 0.5673995001707226, 0.584589600097388, 0.6000725000631064, 0.6193953000474721, 0.634642300195992, 0.6517783000599593, 0.668078500078991, 0.6859344001859426, 0.7009847001172602, 0.719024500111118, 0.73382080020383, 0.7517703999765217, 0.7669441001489758, 0.7849231001455337, 0.8004713000264019, 0.819625300122425, 0.8350296001881361, 0.8518627001903951, 0.8678868000861257, 0.8865223000757396, 0.901063600089401, 0.919296600157395, 0.9342022000346333, 0.952345099998638, 0.9684139001183212, 0.9853854000102729, 1.0008971001952887, 1.0187184000387788, 1.0342735000886023, 1.0521739001851529, 1.068009100155905, 1.0849268999882042, 1.1009850001428276, 1.1187724000774324, 1.134984500007704, 1.1539094001054764, 1.16818550019525, 1.1852647000923753, 1.2016276000067592, 1.2193066000472754, 1.2345320000313222, 1.2521726000122726, 1.2677575000561774, 1.2861945000477135, 1.3006842001341283, 1.3180692000314593, 1.3348917001858354, 1.352150100050494, 1.3676346000283957, 1.3849082000087947, 1.4008580001536757, 1.4179201000370085, 1.4339672999922186, 1.4524304000660777, 1.4684998001903296, 1.4855902001727372, 1.5012841999996454, 1.517559900181368, 1.5339642001781613, 1.552114900201559, 1.5668540000915527, 1.5834621000103652, 1.6011370001360774, 1.6177686001174152, 1.6338316001929343, 1.6527679001446813, 1.6668403001967818, 1.6848304001614451, 1.7004595000762492, 1.7180159001145512, 1.7335675000213087, 1.75066850008443, 1.7670981001574546, 1.7860491001047194, 1.8017492999788374, 1.8178358001168817, 1.8348882000427693, 1.851168000139296, 1.8676311001181602, 1.8856501001864672, 1.9005676000379026, 1.9183428001124412, 1.9346722001209855, 1.9510370001662523, 1.9698556000366807, 1.9848649001214653, 2.0002397000789642, 2.018751800060272, 2.0338002999778837, 2.052832700079307, 2.066382300108671, 2.084783600177616, 2.1013512001372874, 2.1195782001595944, 2.1342378000263125, 2.151934100082144, 2.168656500056386, 2.1866030001547188, 2.2007353000808507, 2.2179038000758737, 2.2348893000744283, 2.2510699001140893, 2.2681356000248343, 2.284760700073093, 2.3003428000956774, 2.3193589001893997, 2.33479390013963, 2.3511917002033442, 2.3674042001366615, 2.3846717001870275, 2.401611600071192, 2.418902200181037, 2.434511800063774, 2.454456100007519, 2.467436700128019, 2.4841756001114845, 2.5011542001739144, 2.5193039001896977, 2.533562600146979, 2.5530897001735866, 2.567437699995935, 2.5858069001697004, 2.600794200086966, 2.6172042000107467, 2.634123200085014, 2.652219600044191, 2.667068100068718, 2.6846266000065953, 2.7009154001716524, 2.718971900176257, 2.734206600114703, 2.7503518001176417, 2.7675212000031024, 2.7851181000005454, 2.800360199995339, 2.818738300120458, 2.8342095999978483, 2.85100660007447, 2.8676180001348257, 2.8835603001061827, 2.9020326000172645, 2.9170505001675338, 2.933470900170505, 2.9524674999993294, 2.9670275000389665, 2.984534200048074, 3.00050440011546, 3.017745800083503, 3.0337302000261843, 3.0511911001522094, 3.066336499992758, 3.0851344000548124, 3.1011269001755863, 3.1178853001911193, 3.134272800059989, 3.150404600193724, 3.1671667001210153, 3.1845414000563323, 3.202304400037974, 3.2192983001004905, 3.2339576000813395, 3.252078700112179, 3.2678839000873268, 3.2864104001782835, 3.3013790000695735]
S15;15;0;0;1;False;3000;True;;8;-155.79434599804674;drag;L;-5.4992604;-2.2960827;-157.34;5.96;1.7298115000594407;1.7299411999993026;1686212286.33024;1686212286.3413804;1686212287.0948853;1686212287.5961952;1686212290.5983505;1686212292.3280292;[0.0, 0.0, 0.0, 0.0, 0.0, 0.0, 0.0, 0.0, 0.0, 0.0, 0.0, 0.0, 0.0, 0.0, 0.0, 0.0, 0.0, 0.0, 0.0, 0.0, 0.0, 0.0, 0.0, 0.0, 0.0, 0.0, 0.0, 0.0, 0.0, 0.0, 0.0, 0.0, 0.0, 0.0, 0.0, 0.0, 0.0, 0.0, 0.0, 0.0, 0.0, 0.0, 0.0, 0.0, -1.6724553, -3.1748307, -3.6567245, -3.8268046, -3.8551514, -3.8834982, -4.110272, -4.3086987, -4.4504323, -4.5071254, -4.5354724, -4.620512, -4.7055526, -4.818939, -4.9890194, -5.045713, -5.0740595, -5.130753, -5.1591, -5.1874466, -5.2724867, -5.32918, -5.3858733, -5.4425664, -5.4709134, -5.4709134, -5.4992604, -5.4992604, -5.4992604, -5.4992604, -5.4992604, -5.4992604, -5.4992604, -5.4992604, -5.4992604, -5.527607, -5.527607, -5.527607, -5.527607, -5.527607, -5.527607, -5.527607, -5.4992604, -5.4992604, -5.4992604, -5.4992604, -5.4992604, -5.4992604, -5.4992604, -5.4992604, -5.4992604, -5.4992604, -5.4992604, -5.4992604, -5.4992604, -5.4992604, -5.4992604, -5.4992604, -5.4992604];[0.0, 0.0, 0.0, 0.0, 0.0, 0.0, 0.0, 0.0, 0.0, 0.0, 0.0, 0.0, 0.0, 0.0, 0.0, 0.0, 0.0, 0.0, 0.0, 0.0, 0.0, 0.0, 0.0, 0.0, 0.0, 0.0, 0.0, 0.0, 0.0, 0.0, 0.0, 0.0, 0.0, 0.0, 0.0, 0.0, 0.0, 0.0, 0.0, 0.0, 0.0, 0.0, 0.0, 0.0, -0.6236274, -1.1622148, -1.332295, -1.3606416, -1.3889884, -1.3889884, -1.4456817, -1.5023751, -1.5590686, -1.5590686, -1.5590686, -1.5874153, -1.6157619, -1.6724553, -1.7291489, -1.7574955, -1.7858423, -1.7858423, -1.8141888, -1.8141888, -1.8141888, -1.8141888, -1.8141888, -1.8141888, -1.8141888, -1.8141888, -1.8141888, -1.8425356, -1.8708823, -1.8708823, -1.899229, -1.899229, -1.899229, -1.9275757, -1.984269, -2.012616, -2.0976558, -2.182696, -2.2393894, -2.2677362, -2.2960827, -2.2960827, -2.2960827, -2.2960827, -2.2960827, -2.2960827, -2.2960827, -2.2960827, -2.2960827, -2.2960827, -2.2960827, -2.2960827, -2.2960827, -2.2960827, -2.2960827, -2.2960827, -2.2960827, -2.2960827, -2.2960827];[0.00544640002772212, 0.03207469987682998, 0.05175779992714524, 0.06558030005544424, 0.08412820007652044, 0.09785769996233284, 0.11855969997122884, 0.13233139994554222, 0.15030370000749826, 0.16557940002530813, 0.1827616998925805, 0.19892239989712834, 0.21848460007458925, 0.23299079993739724, 0.2516856000293046, 0.26584420003928244, 0.28364669997245073, 0.2997959000058472, 0.3172424000222236, 0.3324472999665886, 0.3494293000549078, 0.36615050002001226, 0.3846070000436157, 0.3993800999596715, 0.41758290003053844, 0.4324979998636991, 0.45033519994467497, 0.4665391999296844, 0.4836665999609977, 0.4987268000841141, 0.5175534998998046, 0.532759299967438, 0.5515773000661284, 0.5660006999969482, 0.5837387999054044, 0.5994744000490755, 0.6175404000096023, 0.6323180999606848, 0.6499274999368936, 0.6657501999288797, 0.6841799998655915, 0.6996989999897778, 0.7173057999461889, 0.7319642000366002, 0.7520470998715609, 0.7649339998606592, 0.7834866000339389, 0.8009768999181688, 0.8149009000044316, 0.8308981999289244, 0.8502249999437481, 0.8650696999393404, 0.8850465998984873, 0.8991894000209868, 0.9159450998995453, 0.9335099998861551, 0.9498763999436051, 0.965628799982369, 0.98414870002307, 0.9990397000219673, 1.0161335000302643, 1.0327826000284404, 1.0494112998712808, 1.0655397998634726, 1.0822805999778211, 1.0987895000725985, 1.1164551000110805, 1.1323615000583231, 1.1514407000504434, 1.1664408000651747, 1.183443200075999, 1.1978631999809295, 1.216422599973157, 1.2318265000358224, 1.2510049000848085, 1.2649272000417113, 1.2838814000133425, 1.29986899998039, 1.3163034999743104, 1.3331623999401927, 1.3493449999950826, 1.366642399923876, 1.3834909000433981, 1.3996242000721395, 1.4184278999455273, 1.4307993000838906, 1.449934999924153, 1.4660757998935878, 1.4825376998633146, 1.4989054999314249, 1.5166257999371737, 1.5322638000361621, 1.54998610005714, 1.5652997998986393, 1.58352359989658, 1.599786999868229, 1.6172382000368088, 1.6335698999464512, 1.651185099966824, 1.6663339999504387, 1.6836248999461532, 1.6985205998644233, 1.7166190000716597]
