subj;trial;block;prior;kappa;ct;delay;fix;keypressed;R;T_Angle;resp_mod;choice_x;choice_y;init_resp_angle;choiceAngle;choiceR;RT;MT;ts_b;ts_f;ts_p;ts_d;ts_r;ts_e;m_pos_x;m_pos_y;m_clock
S19;0;0;0;1;False;3000;True;;8;24.699286516422;drag;L;5.3575263;2.381123;23.96;5.86;2.449070499977097;2.449229400139302;1686307739.1565583;1686307739.1625779;1686307739.9180229;1686307740.4189806;1686307743.4174585;1686307745.8666973;[0.0, 0.0, 0.0, 0.0, 0.0, 0.0, 0.0, 0.0, 0.0, 0.0, 0.0, 0.0, 0.0, 0.0, 0.0, 0.0, 0.0, 0.0, 0.0, 0.0, 0.0, 0.0, 0.0, 0.0, 0.0, 0.0, 0.0, 0.0, 0.0, 0.0, 0.0, 0.0, 0.0, 0.0, 0.0, 0.0, 0.0, 0.0, 0.0, 0.0, 0.0, 0.0, 0.0, 0.0, 0.0, 0.0, 0.0, 0.0, 0.0, 0.0, 0.0, 0.0, 0.0283467, 0.3401604, 0.48189393, 0.7086675, 0.85040104, 1.0204812, 1.3606416, 1.6157619, 1.7574955, 1.9559225, 2.012616, 2.0976558, 2.2393894, 2.2960827, 2.4094696, 2.466163, 2.5228565, 2.57955, 2.6078966, 2.66459, 2.7496302, 2.8063235, 2.8913634, 2.948057, 3.0047503, 3.1181371, 3.2031772, 3.3449106, 3.4299507, 3.5433376, 3.6567245, 3.7417645, 3.8551514, 3.911845, 3.968538, 4.0535784, 4.1386185, 4.2236586, 4.337045, 4.3937387, 4.5071254, 4.563819, 4.648859, 4.7055526, 4.7905927, 4.847286, 4.960673, 4.9890194, 5.1024065, 5.130753, 5.1874466, 5.215793, 5.2441397, 5.2441397, 5.2724867, 5.2724867, 5.300833, 5.300833, 5.32918, 5.32918, 5.32918, 5.32918, 5.3575263, 5.3575263, 5.3575263, 5.3575263, 5.3575263, 5.3575263, 5.3575263, 5.3575263, 5.3575263, 5.3575263, 5.3575263, 5.3575263, 5.3575263, 5.3575263, 5.3575263, 5.3575263, 5.3575263, 5.3575263, 5.3575263, 5.3575263, 5.3575263, 5.3575263, 5.3575263, 5.3575263, 5.3575263, 5.3575263, 5.3575263, 5.3575263, 5.3575263, 5.3575263, 5.3575263, 5.3575263, 5.3575263];[0.0, 0.0, 0.0, 0.0, 0.0, 0.0, 0.0, 0.0, 0.0, 0.0, 0.0, 0.0, 0.0, 0.0, 0.0, 0.0, 0.0, 0.0, 0.0, 0.0, 0.0, 0.0, 0.0, 0.0, 0.0, 0.0, 0.0, 0.0, 0.0, 0.0, 0.0, 0.0, 0.0, 0.0, 0.0, 0.0, 0.0, 0.0, 0.0, 0.0, 0.0, 0.0, 0.0, 0.0, 0.0, 0.0, 0.0, 0.0, 0.0, 0.0, 0.0, 0.0, 0.0, 0.1133868, 0.14173351, 0.2267736, 0.28346702, 0.3118137, 0.42520052, 0.48189393, 0.48189393, 0.5102406, 0.53858733, 0.53858733, 0.59528077, 0.59528077, 0.6236274, 0.6236274, 0.65197414, 0.6803208, 0.6803208, 0.7086675, 0.73701423, 0.73701423, 0.79370767, 0.8220543, 0.87874776, 0.93544114, 0.9921345, 1.0771747, 1.1622148, 1.1905615, 1.3039483, 1.3606416, 1.4456817, 1.5023751, 1.5874153, 1.6724553, 1.7291489, 1.7858423, 1.8708823, 1.9275757, 1.984269, 2.0409625, 2.0976558, 2.1260026, 2.1543493, 2.211043, 2.2677362, 2.2677362, 2.3244295, 2.3527763, 2.381123, 2.381123, 2.381123, 2.381123, 2.381123, 2.381123, 2.381123, 2.381123, 2.381123, 2.381123, 2.381123, 2.381123, 2.381123, 2.381123, 2.381123, 2.381123, 2.381123, 2.381123, 2.381123, 2.381123, 2.381123, 2.381123, 2.381123, 2.381123, 2.381123, 2.381123, 2.381123, 2.381123, 2.381123, 2.381123, 2.381123, 2.381123, 2.381123, 2.381123, 2.381123, 2.381123, 2.381123, 2.381123, 2.381123, 2.381123, 2.381123, 2.381123, 2.381123, 2.381123, 2.381123];[0.005625300109386444, 0.018615500070154667, 0.03559270012192428, 0.05162960011512041, 0.06866370001807809, 0.08462280011735857, 0.10155809996649623, 0.11759790009818971, 0.13561680004931986, 0.15058660018257797, 0.16861090017482638, 0.18463820009492338, 0.2016592000145465, 0.2176419000606984, 0.2346445000730455, 0.250608199974522, 0.26862180000171065, 0.28357640001922846, 0.3016703000757843, 0.31768580013886094, 0.3346355000976473, 0.35153430001810193, 0.36856760014779866, 0.3845127001404762, 0.4015130000188947, 0.4175086000468582, 0.4354956999886781, 0.4505580000113696, 0.46850370010361075, 0.4844993001315743, 0.5015283001121134, 0.5175447000656277, 0.5344943001400679, 0.5504855001345277, 0.5679731001146138, 0.5839540001470596, 0.6010118999984115, 0.6179878001566976, 0.6349390000104904, 0.6509400999639183, 0.6680270000360906, 0.6839525001123548, 0.701724800048396, 0.717961500165984, 0.7359253000468016, 0.7508704999927431, 0.7688327999785542, 0.7848007001448423, 0.8018257999792695, 0.8178483000956476, 0.835842200089246, 0.8508365000598133, 0.8699278000276536, 0.8859445000998676, 0.9028659001924098, 0.9199547001626343, 0.9358745000790805, 0.9518180000595748, 0.9698803999926895, 0.9849700001068413, 1.0045418001245707, 1.0195192000828683, 1.0365000001620501, 1.052513899980113, 1.0685416001360863, 1.085509299999103, 1.1024927000980824, 1.1177738001570106, 1.1368071001488715, 1.152784900041297, 1.1687700001057237, 1.184764700010419, 1.2027788001578301, 1.2187398001551628, 1.2357816000003368, 1.2517526000738144, 1.270004300167784, 1.2850446000229567, 1.3019993000198156, 1.3211452001705766, 1.3358615001197904, 1.3520100000314415, 1.3700093000661582, 1.3860746000427753, 1.4049150000791997, 1.418977800058201, 1.435630900086835, 1.4535295001696795, 1.4686396000906825, 1.484647500095889, 1.5016214000061154, 1.5176775001455098, 1.5387919000349939, 1.5536399001721293, 1.5702525000087917, 1.5861700000241399, 1.6022435000631958, 1.6182818000670522, 1.6351447000633925, 1.6513195000588894, 1.671181600075215, 1.6851409000810236, 1.7030692000407726, 1.7181161001790315, 1.7361698001623154, 1.7510546001140028, 1.769174400018528, 1.7841223999857903, 1.8042160000186414, 1.8171213001478463, 1.8352034999988973, 1.8522396001499146, 1.869177200132981, 1.8841302001383156, 1.9022044001612812, 1.9171241000294685, 1.9360977001488209, 1.9511292001698166, 1.968147300183773, 1.9851409001275897, 2.0011589000932872, 2.0182092001195997, 2.0352040000725538, 2.0511330000590533, 2.0681461000349373, 2.0841364001389593, 2.1011314999777824, 2.1171154000330716, 2.1351290000602603, 2.1512651999946684, 2.1681276001036167, 2.1841327999718487, 2.2011153001803905, 2.2171281001064926, 2.235167399980128, 2.2501044999808073, 2.268141900189221, 2.2841423000209033, 2.3012012001127005, 2.3171478000003844, 2.335961300181225, 2.351116399979219, 2.3689480000175536, 2.3849814999848604, 2.400938300183043, 2.4178840001113713, 2.4349303001072258]
S19;1;0;0;1;False;1000;True;;8;177.80406197144143;drag;L;-6.321315;-0.96378785;-171.33;6.39;2.4517334001138806;2.45182180008851;1686307746.6879218;1686307746.6969936;1686307747.4505002;1686307747.9515483;1686307748.9329863;1686307751.3845317;[0.0, 0.0, 0.0, 0.0, 0.0, 0.0, 0.0, 0.0, 0.0, 0.0, 0.0, 0.0, 0.0, 0.0, 0.0, 0.0, 0.0, 0.0, 0.0, 0.0, 0.0, 0.0, 0.0, 0.0, 0.0, 0.0, 0.0, 0.0, 0.0, 0.0, 0.0, 0.0, -0.0283467, -0.0850401, -0.1700802, -0.2267736, -0.3118137, -0.42520052, -0.5102406, -0.65197414, -0.73701423, -0.79370767, -0.87874776, -0.9921345, -1.0771747, -1.1905615, -1.2472548, -1.417335, -1.5023751, -1.6157619, -1.7008021, -1.899229, -2.012616, -2.2960827, -2.466163, -2.7779768, -2.9764037, -3.1748307, -3.4016042, -3.6850712, -3.8551514, -4.1386185, -4.337045, -4.5071254, -4.733899, -4.875633, -5.017366, -5.2724867, -5.41422, -5.6409936, -5.75438, -5.8677673, -5.981154, -6.094541, -6.1795807, -6.292968, -6.378008, -6.434701, -6.491395, -6.5197415, -6.6047816, -6.6614747, -6.6898212, -6.774862, -6.8032084, -6.831555, -6.831555, -6.8599014, -6.888248, -6.888248, -6.9165955, -6.9165955, -6.9165955, -6.9165955, -6.9165955, -6.9165955, -6.9165955, -6.9165955, -6.9165955, -6.9165955, -6.9165955, -6.9165955, -6.888248, -6.8599014, -6.8599014, -6.831555, -6.831555, -6.8032084, -6.8032084, -6.8032084, -6.774862, -6.774862, -6.7465153, -6.7465153, -6.7465153, -6.7181687, -6.7181687, -6.6898212, -6.6614747, -6.633128, -6.6047816, -6.6047816, -6.5764346, -6.5764346, -6.548088, -6.5197415, -6.491395, -6.4630475, -6.4630475, -6.434701, -6.4063544, -6.378008, -6.378008, -6.378008, -6.3496614, -6.3496614, -6.321315, -6.321315, -6.321315, -6.321315, -6.321315, -6.321315, -6.321315, -6.321315, -6.321315, -6.321315, -6.321315];[0.0, 0.0, 0.0, 0.0, 0.0, 0.0, 0.0, 0.0, 0.0, 0.0, 0.0, 0.0, 0.0, 0.0, 0.0, 0.0, 0.0, 0.0, 0.0, 0.0, 0.0, 0.0, 0.0, 0.0, 0.0, 0.0, 0.0, 0.0, 0.0, 0.0, 0.0, 0.0, 0.0, 0.0, 0.0, 0.0, 0.0, 0.0, 0.0, -0.0283467, -0.0283467, -0.0283467, -0.0283467, -0.0283467, -0.0283467, -0.0283467, -0.0283467, -0.0566934, -0.0850401, -0.0850401, -0.0850401, -0.1133868, -0.14173351, -0.1700802, -0.1700802, -0.19842692, -0.19842692, -0.19842692, -0.19842692, -0.2267736, -0.2551203, -0.28346702, -0.28346702, -0.3118137, -0.3401604, -0.36850712, -0.36850712, -0.39685383, -0.42520052, -0.4535472, -0.48189393, -0.5102406, -0.5102406, -0.56693405, -0.59528077, -0.6236274, -0.65197414, -0.6803208, -0.6803208, -0.73701423, -0.76536095, -0.8220543, -0.87874776, -0.93544114, -0.96378785, -0.9921345, -0.9921345, -1.0204812, -1.0488279, -1.0488279, -1.0488279, -1.0488279, -1.0488279, -1.0488279, -1.0488279, -1.0488279, -1.0488279, -1.0488279, -1.0488279, -1.0204812, -1.0204812, -1.0204812, -1.0204812, -1.0204812, -1.0204812, -0.9921345, -0.9921345, -0.9921345, -0.9921345, -0.9921345, -0.9921345, -0.9921345, -0.9921345, -0.9921345, -0.9921345, -0.9921345, -0.9921345, -0.96378785, -0.96378785, -0.96378785, -0.96378785, -0.96378785, -0.96378785, -0.96378785, -0.96378785, -0.96378785, -0.96378785, -0.96378785, -0.96378785, -0.96378785, -0.96378785, -0.96378785, -0.96378785, -0.96378785, -0.96378785, -0.96378785, -0.96378785, -0.96378785, -0.96378785, -0.96378785, -0.96378785, -0.96378785, -0.96378785, -0.96378785, -0.96378785, -0.96378785, -0.96378785];[0.003853800008073449, 0.01890349993482232, 0.03587249992415309, 0.05287140002474189, 0.06888899998739362, 0.08589900005608797, 0.10189940012060106, 0.11890200013294816, 0.13486719992943108, 0.15281450003385544, 0.16779060009866953, 0.18586760014295578, 0.20181390014477074, 0.21987150004133582, 0.2358949000481516, 0.25285329995676875, 0.26888380013406277, 0.2868785001337528, 0.30279290000908077, 0.31992859998717904, 0.3358758999966085, 0.35286760004237294, 0.36866479995660484, 0.38576290011405945, 0.40179609996266663, 0.4197647999972105, 0.43480990012176335, 0.45280129997991025, 0.4698153999634087, 0.48553350009024143, 0.5015561999753118, 0.5205292999744415, 0.5356108001433313, 0.5535862999968231, 0.5724279000423849, 0.5862156001385301, 0.6022829001303762, 0.6204758000094444, 0.6363836999516934, 0.6565179000608623, 0.6705030000302941, 0.6864293001126498, 0.7025002001319081, 0.7194108001422137, 0.735402800142765, 0.7534554000012577, 0.7694361999165267, 0.7883808999322355, 0.8024617999326438, 0.8205476999282837, 0.8364544999785721, 0.8533948000986129, 0.8689000001177192, 0.8870151001028717, 0.9019359000958502, 0.9231674999464303, 0.9350992001127452, 0.9530673001427203, 0.96919049997814, 0.9862170999404043, 1.002171800006181, 1.0201952999923378, 1.0351939999964088, 1.0542405999731272, 1.069494100054726, 1.0856942001264542, 1.1026483001187444, 1.119638100033626, 1.135644500143826, 1.1537073999643326, 1.1687503999564797, 1.1868269999977201, 1.2028328001033515, 1.2192587000317872, 1.2362558001186699, 1.2522009999956936, 1.2682101000100374, 1.2872552999760956, 1.3022330000530928, 1.320175000000745, 1.3360594001132995, 1.3530938001349568, 1.3691920000128448, 1.3861505000386387, 1.4021086001303047, 1.4200518999714404, 1.4351475001312792, 1.4541480001062155, 1.46906300005503, 1.4861349000129849, 1.50309729995206, 1.5190781999845058, 1.5350856999866664, 1.5532079001422971, 1.5691047001164407, 1.5861325999721885, 1.602190300123766, 1.619153599953279, 1.636196699924767, 1.6531682000495493, 1.6681276999879628, 1.686184799997136, 1.702137199928984, 1.720166200073436, 1.735166999977082, 1.7531183001119643, 1.7692341001238674, 1.787244000006467, 1.8021825000178069, 1.8191824001260102, 1.8351370999589562, 1.8531613999512047, 1.8700465001165867, 1.8861462001223117, 1.902966700028628, 1.9188792000059038, 1.9349213999230415, 1.954016000032425, 1.9689333999995142, 1.9869562000967562, 2.0038034999743104, 2.018893799977377, 2.0359402999747545, 2.0529006000142545, 2.0688952999189496, 2.0859304999466985, 2.101875599939376, 2.119900699937716, 2.135902800131589, 2.1528791000600904, 2.172916700132191, 2.1858445999678224, 2.20240950002335, 2.2194827999919653, 2.2354787001386285, 2.253218699945137, 2.2693898000288755, 2.286401699995622, 2.302404100075364, 2.319405799964443, 2.335447800112888, 2.352411099942401, 2.368432000046596, 2.3862944000866264, 2.4024445000104606, 2.4194189000409096, 2.436443200102076]
S19;2;0;0;1;False;1000;True;;8;67.00379728085674;drag;L;3.1181371;5.4709134;60.32;6.3;2.650736999930814;2.650855799904093;1686307752.0711114;1686307752.0791304;1686307752.833815;1686307753.3348656;1686307754.3160913;1686307756.9667428;[0.0, 0.0, 0.0, 0.0, 0.0, 0.0, 0.0, 0.0, 0.0, 0.0, 0.0, 0.0, 0.0, 0.0, 0.0, 0.0, 0.0, 0.0, 0.0, 0.0, 0.0, 0.0, 0.0, 0.0, 0.0, 0.0, 0.0, 0.0, 0.0, 0.0, 0.0, 0.0, 0.0, 0.0, 0.0, 0.0, 0.0, 0.0, 0.0, 0.0, 0.0, 0.0, 0.0, 0.0, 0.0, 0.0, 0.0, 0.0, 0.0, 0.0, 0.0, 0.0, 0.0, 0.0, 0.0, 0.0, 0.0, 0.0, 0.0, 0.0, 0.0283467, 0.0850401, 0.1133868, 0.1700802, 0.19842692, 0.28346702, 0.3118137, 0.39685383, 0.4535472, 0.53858733, 0.56693405, 0.65197414, 0.73701423, 0.85040104, 0.9070944, 0.9921345, 1.0204812, 1.0771747, 1.1338681, 1.1905615, 1.3039483, 1.3606416, 1.417335, 1.5023751, 1.5590686, 1.6724553, 1.7291489, 1.7858423, 1.8708823, 1.9275757, 1.984269, 2.0693092, 2.1260026, 2.182696, 2.2677362, 2.2960827, 2.3244295, 2.3527763, 2.381123, 2.4378164, 2.466163, 2.466163, 2.5228565, 2.5512033, 2.57955, 2.6362433, 2.66459, 2.7496302, 2.7779768, 2.8063235, 2.83467, 2.8630168, 2.8913634, 2.8913634, 2.9197102, 2.948057, 2.948057, 2.9764037, 2.9764037, 2.9764037, 3.0047503, 3.0330973, 3.0330973, 3.0330973, 3.0330973, 3.0614438, 3.0614438, 3.0614438, 3.0897903, 3.0897903, 3.0897903, 3.0897903, 3.0897903, 3.0897903, 3.0897903, 3.1181371, 3.1181371, 3.1181371, 3.1181371, 3.1181371, 3.1181371, 3.1181371, 3.1181371, 3.1181371, 3.1181371, 3.1181371, 3.1181371, 3.1181371, 3.1181371, 3.1181371, 3.1181371, 3.1181371, 3.1181371, 3.1181371, 3.1181371, 3.1181371, 3.1181371, 3.1181371, 3.1181371];[0.0, 0.0, 0.0, 0.0, 0.0, 0.0, 0.0, 0.0, 0.0, 0.0, 0.0, 0.0, 0.0, 0.0, 0.0, 0.0, 0.0, 0.0, 0.0, 0.0, 0.0, 0.0, 0.0, 0.0, 0.0, 0.0, 0.0, 0.0, 0.0, 0.0, 0.0, 0.0, 0.0, 0.0, 0.0, 0.0, 0.0, 0.0, 0.0, 0.0, 0.0, 0.0, 0.0, 0.0, 0.0, 0.0, 0.0, 0.0, 0.0, 0.0, 0.0, 0.0, 0.0, 0.0, 0.0, 0.0, 0.0, 0.0, 0.0, 0.0, 0.1133868, 0.2551203, 0.3401604, 0.48189393, 0.56693405, 0.73701423, 0.85040104, 0.9921345, 1.1055214, 1.3039483, 1.417335, 1.6157619, 1.7574955, 2.0409625, 2.182696, 2.381123, 2.4945097, 2.6078966, 2.7496302, 2.83467, 3.0330973, 3.146484, 3.2598708, 3.4299507, 3.514991, 3.6850712, 3.8268046, 3.911845, 4.0535784, 4.110272, 4.1953115, 4.2803516, 4.337045, 4.3937387, 4.478779, 4.5354724, 4.563819, 4.5921655, 4.648859, 4.6772056, 4.7055526, 4.733899, 4.762246, 4.7905927, 4.818939, 4.875633, 4.9039793, 4.960673, 4.960673, 4.9890194, 5.017366, 5.045713, 5.0740595, 5.1024065, 5.130753, 5.1591, 5.1591, 5.1874466, 5.215793, 5.2441397, 5.2724867, 5.300833, 5.300833, 5.32918, 5.3575263, 5.3575263, 5.3858733, 5.3858733, 5.3858733, 5.4425664, 5.4425664, 5.4425664, 5.4425664, 5.4709134, 5.4709134, 5.4709134, 5.4709134, 5.4709134, 5.4709134, 5.4709134, 5.4709134, 5.4709134, 5.4709134, 5.4709134, 5.4709134, 5.4709134, 5.4709134, 5.4709134, 5.4709134, 5.4709134, 5.4709134, 5.4709134, 5.4709134, 5.4709134, 5.4709134, 5.4709134, 5.4709134, 5.4709134, 5.4709134];[0.0035707999486476183, 0.01955730002373457, 0.03556869993917644, 0.05260229995474219, 0.06859080004505813, 0.08601640001870692, 0.10213569994084537, 0.11911959992721677, 0.13512400002218783, 0.15210710000246763, 0.1681208999361843, 0.18618199997581542, 0.20112790004350245, 0.21955269994214177, 0.2345254998654127, 0.2525448000524193, 0.2685016000177711, 0.28543519997037947, 0.3014938998967409, 0.318469800055027, 0.3344979998655617, 0.35256699984893203, 0.3679782999679446, 0.3849285999312997, 0.4010343998670578, 0.4189524999819696, 0.43498789984732866, 0.4518716000020504, 0.46800630004145205, 0.48599159996956587, 0.5010009999386966, 0.5189797000493854, 0.5350029000546783, 0.5521579999476671, 0.5681028999388218, 0.5851125998888165, 0.6011125000659376, 0.6191338999196887, 0.6351349998731166, 0.6522009999025613, 0.6681528000626713, 0.6861437000334263, 0.702070799889043, 0.7191230000462383, 0.7351279000286013, 0.7521525998599827, 0.7680994998663664, 0.7856244000140578, 0.8021637999918312, 0.8190967999398708, 0.8351483999285847, 0.8521014000289142, 0.8689951000269502, 0.8861173000186682, 0.9021353998687118, 0.9191650999709964, 0.9350953998509794, 0.9521363999228925, 0.9681120999157429, 0.9852082999423146, 1.00307139987126, 1.0221076998859644, 1.0371882000472397, 1.0540859999600798, 1.0688992000650615, 1.087032400071621, 1.1020297999493778, 1.1189761999994516, 1.1349859999027103, 1.1560352998785675, 1.1689178999513388, 1.1868342999368906, 1.2020816998556256, 1.220039000036195, 1.2359684999100864, 1.2519680999685079, 1.2698607000056654, 1.2863483999390155, 1.3021958000026643, 1.3200044999830425, 1.3384179999120533, 1.353411299875006, 1.3691992000676692, 1.3863206999376416, 1.4023545999079943, 1.4216940999031067, 1.4348690998740494, 1.4528979999013245, 1.4708908000029624, 1.4878304998856038, 1.5018587000668049, 1.518847499974072, 1.5354859000071883, 1.5524833998642862, 1.5685578999109566, 1.5864279998932034, 1.6015478998888284, 1.6195604999084026, 1.635509500047192, 1.6525063998997211, 1.668517000041902, 1.687877699965611, 1.702294599963352, 1.719226700020954, 1.7341684000566602, 1.7534902000334114, 1.7682429000269622, 1.7864329998847097, 1.8015618999488652, 1.8192859999835491, 1.835329300025478, 1.8523738000076264, 1.868302799994126, 1.8873344999738038, 1.9012928998563439, 1.9202580000273883, 1.9352541998960078, 1.952138700056821, 1.9682465998921543, 1.9861971999052912, 2.0023080999962986, 2.0182524998672307, 2.0342266999650747, 2.052251499844715, 2.068215699866414, 2.0850657999981195, 2.1012446000240743, 2.1195004999171942, 2.134220599895343, 2.1522552999667823, 2.1686249000485986, 2.185261100064963, 2.2012336999177933, 2.219214600045234, 2.2342308999504894, 2.2541708999779075, 2.2682686999905854, 2.2853077000472695, 2.301324399886653, 2.3183424999006093, 2.335295599885285, 2.3520710999146104, 2.368105399888009, 2.3851369998883456, 2.4008786999620497, 2.418220599880442, 2.43428110005334, 2.452339499955997, 2.468327699927613, 2.4853115000296384, 2.5013121999800205, 2.518358799861744, 2.5352920999284834, 2.5523089999333024, 2.5683982998598367, 2.585342099890113, 2.6012242999859154, 2.619230799842626, 2.634208800038323]
S19;3;0;0;1;False;3000;True;;8;-153.55054922885992;drag;L;-6.548088;-2.4094696;-159.8;6.98;1.9332439000718296;1.9333488000556827;1686307757.6800613;1686307757.6960514;1686307758.4500606;1686307758.9510505;1686307761.9501562;1686307763.8838973;[0.0, 0.0, 0.0, 0.0, 0.0, 0.0, 0.0, 0.0, 0.0, 0.0, 0.0, 0.0, 0.0, 0.0, 0.0, 0.0, 0.0, 0.0, 0.0, 0.0, 0.0, 0.0, 0.0, 0.0, 0.0, 0.0, 0.0, 0.0, 0.0, 0.0, 0.0, 0.0, 0.0, 0.0, 0.0, -0.3401604, -0.6236274, -0.87874776, -1.2756016, -1.5307219, -1.8708823, -2.0976558, -2.4094696, -2.5228565, -2.66459, -2.83467, -2.9764037, -3.0897903, -3.2882173, -3.4299507, -3.5433376, -3.7417645, -3.8551514, -4.081925, -4.1953115, -4.3937387, -4.5921655, -4.733899, -4.932326, -5.045713, -5.1591, -5.300833, -5.3858733, -5.4709134, -5.612647, -5.697687, -5.75438, -5.8394203, -5.896114, -5.981154, -6.0661945, -6.094541, -6.151234, -6.1795807, -6.2362742, -6.264621, -6.292968, -6.321315, -6.378008, -6.378008, -6.4063544, -6.4063544, -6.434701, -6.434701, -6.434701, -6.4630475, -6.4630475, -6.4630475, -6.4630475, -6.4630475, -6.4630475, -6.491395, -6.491395, -6.491395, -6.491395, -6.491395, -6.5197415, -6.5197415, -6.548088, -6.548088, -6.548088, -6.548088, -6.548088, -6.548088, -6.548088, -6.548088, -6.548088, -6.548088, -6.548088, -6.548088, -6.548088, -6.548088, -6.548088, -6.548088, -6.548088, -6.548088];[0.0, 0.0, 0.0, 0.0, 0.0, 0.0, 0.0, 0.0, 0.0, 0.0, 0.0, 0.0, 0.0, 0.0, 0.0, 0.0, 0.0, 0.0, 0.0, 0.0, 0.0, 0.0, 0.0, 0.0, 0.0, 0.0, 0.0, 0.0, 0.0, 0.0, 0.0, 0.0, 0.0, 0.0, 0.0, -0.14173351, -0.28346702, -0.42520052, -0.6236274, -0.76536095, -0.93544114, -1.0771747, -1.2189082, -1.3039483, -1.3606416, -1.4456817, -1.5023751, -1.5590686, -1.6724553, -1.7291489, -1.7858423, -1.899229, -1.9559225, -2.0693092, -2.1543493, -2.2393894, -2.3244295, -2.381123, -2.466163, -2.4945097, -2.5512033, -2.57955, -2.6362433, -2.66459, -2.6929367, -2.6929367, -2.6929367, -2.6929367, -2.6929367, -2.6929367, -2.6929367, -2.6929367, -2.66459, -2.66459, -2.6362433, -2.6078966, -2.6078966, -2.6078966, -2.57955, -2.5512033, -2.5512033, -2.5228565, -2.5228565, -2.4945097, -2.4945097, -2.466163, -2.4378164, -2.4378164, -2.4094696, -2.4094696, -2.4094696, -2.4094696, -2.4094696, -2.4094696, -2.4094696, -2.4094696, -2.4094696, -2.4094696, -2.4094696, -2.4094696, -2.4094696, -2.4094696, -2.4094696, -2.4094696, -2.4094696, -2.4094696, -2.4094696, -2.4094696, -2.4094696, -2.4094696, -2.4094696, -2.4094696, -2.4094696, -2.4094696, -2.4094696, -2.4094696];[0.004017000086605549, 0.01724030007608235, 0.03394349990412593, 0.05090790009126067, 0.06801329995505512, 0.08430929994210601, 0.1009201998822391, 0.11803769995458424, 0.13509009988047183, 0.1499401000328362, 0.1669423000421375, 0.1840258000884205, 0.20100619993172586, 0.21594009990803897, 0.23377899988554418, 0.25099550001323223, 0.2682844998780638, 0.28306089993566275, 0.30095520010218024, 0.3170350999571383, 0.33538229996338487, 0.34996809996664524, 0.36903739999979734, 0.3840222000144422, 0.4018041999079287, 0.41624070005491376, 0.43323910003528, 0.4503569998778403, 0.4682952999137342, 0.48327980004251003, 0.5012880000285804, 0.5172770000062883, 0.5342234999407083, 0.5502525998745114, 0.5682955000083894, 0.5841069000307471, 0.6001279000192881, 0.6161142999771982, 0.6341144999023527, 0.6501674000173807, 0.6683179999236017, 0.6855248000938445, 0.7023120000958443, 0.7171837000641972, 0.73340729996562, 0.7516765999607742, 0.7685736999846995, 0.7834240000229329, 0.8006339999847114, 0.8166676999535412, 0.83455969998613, 0.8496457000728697, 0.8675367999821901, 0.8856641999445856, 0.9010779999662191, 0.9165713998954743, 0.9346225999761373, 0.9506826000288129, 0.9686841000802815, 0.9836931000463665, 1.002751799998805, 1.0186360999941826, 1.03455529990606, 1.0505347999278456, 1.0679357000626624, 1.0840549001004547, 1.1009291000664234, 1.1169231999665499, 1.1359814999159425, 1.1514333998784423, 1.1668692999519408, 1.1839014999568462, 1.2017985000275075, 1.217782200081274, 1.2347114998847246, 1.249818699900061, 1.2680629999376833, 1.2831808000337332, 1.3003795000258833, 1.3174709999002516, 1.3345369999296963, 1.350661400007084, 1.3697017000522465, 1.3846926998812705, 1.401468399912119, 1.4185864999890327, 1.4346793999429792, 1.4505364999640733, 1.4676345998886973, 1.4837056999094784, 1.5016415999270976, 1.5166611999738961, 1.5347581999376416, 1.5506414000410587, 1.5676674998831004, 1.5835728999227285, 1.6017193000297993, 1.6176756999921054, 1.6357549000531435, 1.6506803000811487, 1.6686650000046939, 1.6836810000240803, 1.7016686000861228, 1.7175366999581456, 1.7346606000792235, 1.7506623999215662, 1.7677492999937385, 1.7836893000639975, 1.8005103000905365, 1.8166183000430465, 1.8347028999123722, 1.8516865000128746, 1.8686047000810504, 1.8850316999014467, 1.9015957000665367, 1.9176030000671744]
S19;4;0;0;1;False;3000;True;;8;-97.80176039242961;drag;L;-3.1181371;-6.831555;-114.53;7.51;2.9011310001369566;2.9011763997841626;1686307764.6389327;1686307764.6449518;1686307765.3996303;1686307765.9008975;1686307768.8980727;1686307771.7992;[0.0, 0.0, 0.0, 0.0, 0.0, 0.0, 0.0, 0.0, 0.0, 0.0, 0.0, 0.0, 0.0, 0.0, 0.0, 0.0, 0.0, 0.0, 0.0, 0.0, 0.0, 0.0, 0.0, 0.0, 0.0, 0.0, 0.0, 0.0, 0.0, 0.0, 0.0, 0.0, 0.0, 0.0, 0.0, 0.0, 0.0, 0.0, 0.0, 0.0, 0.0, 0.0, 0.0, 0.0, 0.0, 0.0, -0.0283467, -0.0850401, -0.1700802, -0.2551203, -0.3118137, -0.48189393, -0.56693405, -0.6236274, -0.76536095, -0.87874776, -1.0204812, -1.1338681, -1.2756016, -1.5023751, -1.6441087, -1.7008021, -1.8425356, -1.9275757, -2.0693092, -2.182696, -2.2960827, -2.4094696, -2.466163, -2.5512033, -2.66459, -2.6929367, -2.7779768, -2.83467, -2.8630168, -2.9197102, -2.9764037, -3.0047503, -3.0614438, -3.0614438, -3.0897903, -3.1181371, -3.1181371, -3.146484, -3.146484, -3.146484, -3.146484, -3.146484, -3.146484, -3.146484, -3.146484, -3.146484, -3.146484, -3.146484, -3.146484, -3.146484, -3.146484, -3.146484, -3.146484, -3.146484, -3.146484, -3.146484, -3.1181371, -3.1181371, -3.1181371, -3.1181371, -3.1181371, -3.1181371, -3.1181371, -3.1181371, -3.1181371, -3.1181371, -3.1181371, -3.1181371, -3.1181371, -3.1181371, -3.1181371, -3.1181371, -3.1181371, -3.1181371, -3.1181371, -3.1181371, -3.1181371, -3.1181371, -3.1181371, -3.1181371, -3.1181371, -3.1181371, -3.1181371, -3.1181371, -3.1181371, -3.1181371, -3.1181371, -3.1181371, -3.1181371, -3.1181371, -3.1181371, -3.1181371, -3.1181371, -3.1181371, -3.1181371, -3.1181371, -3.1181371, -3.1181371, -3.1181371, -3.1181371, -3.1181371, -3.1181371, -3.1181371, -3.1181371, -3.1181371, -3.1181371, -3.1181371, -3.1181371, -3.1181371, -3.1181371, -3.1181371, -3.1181371, -3.1181371, -3.1181371, -3.1181371, -3.1181371, -3.1181371, -3.1181371, -3.1181371, -3.1181371, -3.1181371, -3.1181371, -3.1181371, -3.1181371, -3.1181371, -3.1181371, -3.1181371, -3.1181371];[0.0, 0.0, 0.0, 0.0, 0.0, 0.0, 0.0, 0.0, 0.0, 0.0, 0.0, 0.0, 0.0, 0.0, 0.0, 0.0, 0.0, 0.0, 0.0, 0.0, 0.0, 0.0, 0.0, 0.0, 0.0, 0.0, 0.0, 0.0, 0.0, 0.0, 0.0, 0.0, 0.0, 0.0, 0.0, 0.0, 0.0, 0.0, 0.0, 0.0, 0.0, 0.0, 0.0, 0.0, 0.0, 0.0, -0.0566934, -0.1700802, -0.42520052, -0.6236274, -0.79370767, -1.1622148, -1.332295, -1.5590686, -1.8708823, -2.0693092, -2.381123, -2.57955, -2.83467, -3.2598708, -3.4582977, -3.6000311, -3.8268046, -4.025232, -4.337045, -4.5354724, -4.847286, -5.0740595, -5.2441397, -5.4425664, -5.697687, -5.8394203, -6.037847, -6.1795807, -6.292968, -6.4630475, -6.5764346, -6.7181687, -6.831555, -6.9165955, -7.029982, -7.086675, -7.143369, -7.1717157, -7.2000623, -7.228409, -7.2567554, -7.2567554, -7.2567554, -7.2567554, -7.2567554, -7.2567554, -7.2567554, -7.2567554, -7.2567554, -7.2567554, -7.2567554, -7.228409, -7.228409, -7.2000623, -7.2000623, -7.1717157, -7.143369, -7.1150217, -7.1150217, -7.086675, -7.086675, -7.0583286, -7.0583286, -7.0583286, -7.0583286, -7.0583286, -7.0583286, -7.0583286, -7.0583286, -7.0583286, -7.0583286, -7.0583286, -7.0583286, -7.0583286, -7.0583286, -7.0583286, -7.0583286, -7.0583286, -7.0583286, -7.0583286, -7.0583286, -7.0583286, -7.0583286, -7.0583286, -7.0583286, -7.0583286, -7.0583286, -7.0583286, -7.0583286, -7.0583286, -7.0583286, -7.0583286, -7.0583286, -7.0583286, -7.0583286, -7.0583286, -7.0583286, -7.0583286, -7.0583286, -7.0583286, -7.0583286, -7.0583286, -7.0583286, -7.0583286, -7.029982, -7.0016356, -6.9732885, -6.944942, -6.9165955, -6.888248, -6.8599014, -6.831555, -6.831555, -6.831555, -6.831555, -6.831555, -6.831555, -6.831555, -6.831555, -6.831555, -6.831555, -6.831555, -6.831555, -6.831555, -6.831555, -6.831555, -6.831555, -6.831555];[0.003897499991580844, 0.01797019992955029, 0.035027199890464544, 0.05106749990954995, 0.06803709990344942, 0.0840419998858124, 0.10150799993425608, 0.11810329998843372, 0.13437899993732572, 0.15109139983542264, 0.16846129996702075, 0.18431869987398386, 0.2013059000018984, 0.21790819987654686, 0.2354232999496162, 0.250919499900192, 0.26783539983443916, 0.2846291000023484, 0.3020981999579817, 0.3175139999948442, 0.3341794000007212, 0.35014069988392293, 0.36766029987484217, 0.38364309980534017, 0.40164839988574386, 0.4180121999233961, 0.43496199999935925, 0.45105739985592663, 0.4690664999652654, 0.48505329992622137, 0.5019528998527676, 0.5171811999753118, 0.5351865999400616, 0.5506074998993427, 0.5678710998035967, 0.5836298998910934, 0.601635699858889, 0.6170277998317033, 0.6342843999154866, 0.6512980998959392, 0.6688345998991281, 0.6845567999407649, 0.7018587999045849, 0.7183319998439401, 0.7346189999952912, 0.7513726998586208, 0.7681896998547018, 0.7851655997801572, 0.8014638999011368, 0.8177142997737974, 0.835103599820286, 0.8515709999483079, 0.8685858999378979, 0.8850667998194695, 0.9020111998543143, 0.9182335999794304, 0.9356774999760091, 0.9508920998778194, 0.9684252999722958, 0.9846855998039246, 1.0021732999011874, 1.0181601999793202, 1.0351187998894602, 1.0521673997864127, 1.0691429998259991, 1.0851392999757081, 1.103510099928826, 1.1182503998279572, 1.1354774998035282, 1.152080699801445, 1.1688413999509066, 1.1853828998282552, 1.2017301998566836, 1.2187329998705536, 1.2368530998937786, 1.2547617999371141, 1.2698748998809606, 1.2858439998235554, 1.3038482998963445, 1.318876899778843, 1.3368075999896973, 1.3528561999555677, 1.3717651998158544, 1.3858709998894483, 1.4038181998766959, 1.4201151998713613, 1.437096299836412, 1.4530685998033732, 1.47010189993307, 1.4861212999094278, 1.5031122998334467, 1.5191455997992307, 1.5372388998512179, 1.5531155997887254, 1.5701422998681664, 1.586283199954778, 1.6041035999078304, 1.6190862997900695, 1.637120199855417, 1.6520765000022948, 1.6701591999735683, 1.6861068999860436, 1.7041096999309957, 1.7201013998128474, 1.7371274998877198, 1.7531140998471528, 1.7701024999842048, 1.78609269997105, 1.8030998997855932, 1.819127299822867, 1.8360962998121977, 1.8531037999782711, 1.8707605998497456, 1.8858194998465478, 1.9037672998383641, 1.9197794999927282, 1.9367492999881506, 1.9527718999888748, 1.9697570998687297, 1.98611869988963, 2.0031099999323487, 2.0191049999557436, 2.0370475999079645, 2.0530279998201877, 2.0700090997852385, 2.0860602997709066, 2.103000999893993, 2.1191633997950703, 2.1355772998649627, 2.1516026998870075, 2.169663499807939, 2.185665499884635, 2.20372789981775, 2.2196966998744756, 2.2366774999536574, 2.2526647998020053, 2.269950899994001, 2.286111099878326, 2.3030723999254405, 2.319076699903235, 2.3370835999958217, 2.352060099830851, 2.3699751999229193, 2.385972899850458, 2.402954899938777, 2.418977899942547, 2.4370171998161823, 2.4529991999734193, 2.470005099894479, 2.4860003998037428, 2.5040096999146044, 2.519948799861595, 2.53802049998194, 2.55297839990817, 2.5710071998182684, 2.5869715998414904, 2.6030593998730183, 2.6212818999774754, 2.636237599886954, 2.6522244999650866, 2.670227099908516, 2.6862365999259055, 2.7042962999548763, 2.7192544999998063, 2.7362092998810112, 2.7522356999106705, 2.769233200000599, 2.785276799928397, 2.8032798999920487, 2.819278499810025, 2.8372441998217255, 2.853231699904427, 2.870240299962461, 2.8861959998030216]
S19;5;0;0;1;False;1000;True;;8;70.32347614986037;drag;L;2.3527763;5.782727;67.86;6.24;2.417078899918124;2.417166900122538;1686307772.5656617;1686307772.5788233;1686307773.3327575;1686307773.8340924;1686307774.815666;1686307777.2325578;[0.0, 0.0, 0.0, 0.0, 0.0, 0.0, 0.0, 0.0, 0.0, 0.0, 0.0, 0.0, 0.0, 0.0, 0.0, 0.0, 0.0, 0.0, 0.0, 0.0, 0.0, 0.0, 0.0, 0.0, 0.0, 0.0, 0.0, 0.0, 0.0, 0.0, 0.0, 0.0, 0.0, 0.0, 0.0, 0.0, 0.0, 0.0, 0.0, 0.0, 0.0, 0.0, 0.0, 0.0, 0.0, 0.0, 0.0, 0.0, 0.0, 0.0, 0.0, 0.0, 0.0, 0.0, 0.0, 0.0, 0.0, 0.0, 0.0, 0.0, 0.0, 0.0283467, 0.0283467, 0.0566934, 0.0850401, 0.14173351, 0.2267736, 0.39685383, 0.53858733, 0.6236274, 0.76536095, 0.8220543, 0.87874776, 0.96378785, 1.0488279, 1.2189082, 1.2756016, 1.3039483, 1.3606416, 1.3889884, 1.4456817, 1.5590686, 1.6441087, 1.7574955, 1.8141888, 1.8708823, 1.899229, 1.9559225, 2.0409625, 2.0693092, 2.1260026, 2.1543493, 2.182696, 2.211043, 2.2393894, 2.2960827, 2.3244295, 2.3244295, 2.3527763, 2.381123, 2.381123, 2.381123, 2.4094696, 2.4094696, 2.4094696, 2.4094696, 2.4094696, 2.4094696, 2.4094696, 2.4094696, 2.4094696, 2.4094696, 2.4094696, 2.4094696, 2.4094696, 2.4094696, 2.4094696, 2.381123, 2.381123, 2.3527763, 2.3527763, 2.3527763, 2.3527763, 2.3527763, 2.3527763, 2.3527763, 2.3527763, 2.3527763, 2.3527763, 2.3527763, 2.3527763, 2.3527763, 2.3527763, 2.3527763, 2.3527763, 2.3527763, 2.3527763, 2.3527763, 2.3527763, 2.3527763, 2.3527763, 2.3527763, 2.3527763, 2.3527763, 2.3527763];[0.0, 0.0, 0.0, 0.0, 0.0, 0.0, 0.0, 0.0, 0.0, 0.0, 0.0, 0.0, 0.0, 0.0, 0.0, 0.0, 0.0, 0.0, 0.0, 0.0, 0.0, 0.0, 0.0, 0.0, 0.0, 0.0, 0.0, 0.0, 0.0, 0.0, 0.0, 0.0, 0.0, 0.0, 0.0, 0.0, 0.0, 0.0, 0.0, 0.0, 0.0, 0.0, 0.0, 0.0, 0.0, 0.0, 0.0, 0.0, 0.0, 0.0, 0.0, 0.0, 0.0, 0.0, 0.0, 0.0, 0.0, 0.0, 0.0, 0.0, 0.0283467, 0.0850401, 0.1133868, 0.1700802, 0.2267736, 0.3401604, 0.48189393, 0.85040104, 1.1055214, 1.3606416, 1.7008021, 1.899229, 2.0409625, 2.2960827, 2.5512033, 2.8913634, 3.0614438, 3.2031772, 3.316564, 3.4016042, 3.5716846, 3.911845, 4.1953115, 4.5354724, 4.7055526, 4.9039793, 5.017366, 5.1591, 5.32918, 5.4425664, 5.527607, 5.6409936, 5.66934, 5.7260337, 5.782727, 5.8394203, 5.896114, 5.924461, 5.9528074, 5.9528074, 5.981154, 6.0095005, 6.0095005, 6.0095005, 6.0095005, 6.0095005, 6.0095005, 6.0095005, 6.0095005, 6.0095005, 6.0095005, 6.0095005, 6.0095005, 6.0095005, 6.0095005, 6.0095005, 5.981154, 5.9528074, 5.896114, 5.8677673, 5.8394203, 5.811074, 5.782727, 5.782727, 5.782727, 5.782727, 5.782727, 5.782727, 5.782727, 5.782727, 5.782727, 5.782727, 5.782727, 5.782727, 5.782727, 5.782727, 5.782727, 5.782727, 5.782727, 5.782727, 5.782727, 5.782727, 5.782727, 5.782727, 5.782727];[0.0038457000628113747, 0.01886230008676648, 0.0349585001822561, 0.051910600159317255, 0.06788400001823902, 0.08485850016586483, 0.10158929997123778, 0.11860160017386079, 0.13462230004370213, 0.1526162000373006, 0.1676076001022011, 0.18565100012347102, 0.20158380013890564, 0.2186355001758784, 0.23460049997083843, 0.25262070004828274, 0.2676025000400841, 0.2856344000902027, 0.3006453001871705, 0.3186302001122385, 0.334599900059402, 0.35163190006278455, 0.3676903999876231, 0.3858998999930918, 0.4007533001713455, 0.4188398001715541, 0.43481720006093383, 0.4518433001358062, 0.46786130010150373, 0.48483590013347566, 0.5008799000643194, 0.5188385001383722, 0.5348032000474632, 0.5518601001240313, 0.5678499999921769, 0.5848538000136614, 0.6008321000263095, 0.618842100026086, 0.634824600070715, 0.6518737999722362, 0.6675524001475424, 0.6855350001715124, 0.7015150000806898, 0.7186058000661433, 0.7345492001622915, 0.751579400151968, 0.7685406000819057, 0.785621999995783, 0.8015690001193434, 0.8185851001180708, 0.8345470000058413, 0.8516323000658303, 0.8685841001570225, 0.8855570000596344, 0.9015776000451297, 0.9185913000255823, 0.9345313000958413, 0.9515414000488818, 0.9675530001986772, 0.9845127000007778, 1.001543699996546, 1.0214766000863165, 1.0345393000170588, 1.0515286000445485, 1.0681269001215696, 1.0848660999909043, 1.1009157001972198, 1.1188746001571417, 1.1378113999962807, 1.1518580000847578, 1.1690216001588851, 1.1859244001097977, 1.2019238001666963, 1.2178619001060724, 1.2349376000929624, 1.2529019999783486, 1.267930000089109, 1.2857419999781996, 1.3017514999955893, 1.3187451001722366, 1.3347641001455486, 1.3517321001272649, 1.3673859001137316, 1.384329300140962, 1.4003375000320375, 1.4213549999985844, 1.4343346999958158, 1.4513138001784682, 1.470240700058639, 1.484316100133583, 1.5013394001871347, 1.5183179001323879, 1.535387400072068, 1.5523350001312792, 1.5683371000923216, 1.5853041000664234, 1.6033673000056297, 1.6183355001267046, 1.6343458001501858, 1.652372700162232, 1.6673314999789, 1.6872930000536144, 1.7012238001916558, 1.7184189001563936, 1.7343536000698805, 1.7523425000254065, 1.7674049001652747, 1.7854309000540525, 1.8013724000193179, 1.8194271000102162, 1.8343728000763804, 1.8514009001664817, 1.8684566000010818, 1.8853996000252664, 1.9009523000568151, 1.9190954000223428, 1.9349100000690669, 1.9509018000680953, 1.966997800162062, 1.9850852000527084, 2.001173600088805, 2.0190658001229167, 2.03425640007481, 2.0521995001472533, 2.0682159001007676, 2.0851873999927193, 2.101158100180328, 2.118149199988693, 2.1351729000452906, 2.1511678001843393, 2.16825220012106, 2.1851690001785755, 2.201181400101632, 2.2193935001268983, 2.2340642001945525, 2.251133100129664, 2.2681991001591086, 2.285175000084564, 2.3011792001780123, 2.318166800076142, 2.3341608000919223, 2.352186300093308, 2.3681542000267655, 2.385174100054428, 2.4006648000795394]
S19;6;0;0;1;False;3000;True;;8;-112.76228127639737;drag;L;-2.4378164;-6.1228876;-111.71;6.59;1.8673778001684695;1.8674701999407262;1686307777.9518156;1686307777.9618201;1686307778.7155752;1686307779.21688;1686307782.2153683;1686307784.0826333;[0.0, 0.0, 0.0, 0.0, 0.0, 0.0, 0.0, 0.0, 0.0, 0.0, 0.0, 0.0, 0.0, 0.0, 0.0, 0.0, 0.0, 0.0, 0.0, 0.0, 0.0, 0.0, 0.0, 0.0, 0.0, 0.0, 0.0, 0.0, 0.0, 0.0, 0.0, 0.0, 0.0, 0.0, 0.0, 0.0, 0.0, 0.0, -0.0566934, -0.14173351, -0.2551203, -0.3401604, -0.4535472, -0.56693405, -0.73701423, -0.85040104, -0.96378785, -1.1055214, -1.2189082, -1.3039483, -1.3606416, -1.417335, -1.4740285, -1.5307219, -1.5590686, -1.5874153, -1.6441087, -1.6441087, -1.6724553, -1.7008021, -1.7008021, -1.7291489, -1.7574955, -1.7574955, -1.7858423, -1.8141888, -1.8141888, -1.8425356, -1.8708823, -1.899229, -1.9275757, -1.9275757, -1.984269, -1.984269, -2.012616, -2.012616, -2.0409625, -2.0693092, -2.0693092, -2.0693092, -2.0976558, -2.0976558, -2.1543493, -2.1543493, -2.182696, -2.182696, -2.211043, -2.2393894, -2.2677362, -2.2677362, -2.2960827, -2.3244295, -2.3527763, -2.381123, -2.4094696, -2.4094696, -2.4378164, -2.4378164, -2.4378164, -2.4378164, -2.4378164, -2.4378164, -2.4378164, -2.4378164, -2.4378164, -2.4378164, -2.4378164, -2.4378164, -2.4378164, -2.4378164, -2.4378164, -2.4378164];[0.0, 0.0, 0.0, 0.0, 0.0, 0.0, 0.0, 0.0, 0.0, 0.0, 0.0, 0.0, 0.0, 0.0, 0.0, 0.0, 0.0, 0.0, 0.0, 0.0, 0.0, 0.0, 0.0, 0.0, 0.0, 0.0, 0.0, 0.0, 0.0, 0.0, 0.0, 0.0, 0.0, 0.0, 0.0, 0.0, 0.0, 0.0, -0.1133868, -0.28346702, -0.53858733, -0.76536095, -1.1055214, -1.4456817, -1.8708823, -2.1543493, -2.4378164, -2.6929367, -2.9764037, -3.1181371, -3.2882173, -3.4016042, -3.4866443, -3.6000311, -3.713418, -3.770111, -3.8551514, -3.911845, -4.025232, -4.0535784, -4.110272, -4.2236586, -4.252005, -4.3086987, -4.422086, -4.5354724, -4.648859, -4.7055526, -4.7905927, -4.875633, -4.9890194, -5.1024065, -5.215793, -5.2724867, -5.3575263, -5.41422, -5.4425664, -5.4709134, -5.527607, -5.527607, -5.5843005, -5.612647, -5.6409936, -5.66934, -5.697687, -5.697687, -5.75438, -5.782727, -5.811074, -5.8677673, -5.896114, -5.924461, -5.9528074, -6.0095005, -6.037847, -6.0661945, -6.094541, -6.094541, -6.1228876, -6.1228876, -6.1228876, -6.1228876, -6.1228876, -6.1228876, -6.1228876, -6.1228876, -6.1228876, -6.1228876, -6.1228876, -6.1228876, -6.1228876, -6.1228876];[0.0035616999957710505, 0.018541199853643775, 0.03552449983544648, 0.050509699853137136, 0.06849239999428391, 0.08449029992334545, 0.10187519993633032, 0.11823979998007417, 0.1352387999650091, 0.15120540000498295, 0.168200199957937, 0.18420969997532666, 0.20128439995460212, 0.2173327999189496, 0.23534659994766116, 0.2508805999532342, 0.26851510000415146, 0.2842600999865681, 0.3023146998602897, 0.3172649999614805, 0.3352326999884099, 0.3512954998295754, 0.368242499884218, 0.384214999852702, 0.4011927000246942, 0.4172012999188155, 0.43519889982417226, 0.45135949994437397, 0.4687508998904377, 0.48428319999948144, 0.5022477998863906, 0.5171370999887586, 0.5351417998317629, 0.5511696999892592, 0.5682163999881595, 0.5843505000229925, 0.6022708998061717, 0.6173465999308974, 0.6353630998637527, 0.6512596998363733, 0.6693306998349726, 0.6843168998602778, 0.703345799818635, 0.7173328998032957, 0.7382406999822706, 0.7513109999708831, 0.7683353000320494, 0.7843074998818338, 0.8023452998604625, 0.817352999933064, 0.8362720999866724, 0.8503010999411345, 0.8684387998655438, 0.886239199899137, 0.9013403998687863, 0.9193598998244852, 0.9353248998522758, 0.9503202999476343, 0.9703551998827606, 0.9853375998791307, 1.0013226999435574, 1.0193299998063594, 1.0343136999290437, 1.0512379999272525, 1.0693741999566555, 1.0843362000305206, 1.104245499940589, 1.1185467999894172, 1.1355103999376297, 1.1505676999222487, 1.1675468999892473, 1.184302399866283, 1.2032971000298858, 1.2182095998432487, 1.2371019998099655, 1.251214699819684, 1.2682338999584317, 1.286108799977228, 1.301224699942395, 1.3172265000175685, 1.3372734999284148, 1.3512060998473316, 1.370407999958843, 1.3843978999648243, 1.4013504998292774, 1.417450499953702, 1.434402999933809, 1.4514510999433696, 1.4694742998108268, 1.48439159989357, 1.502929399954155, 1.5189176998101175, 1.5348982999566942, 1.5538262999616563, 1.5677647998090833, 1.584868900012225, 1.6029498998541385, 1.6178994998335838, 1.6358821999747306, 1.6498874998651445, 1.6679118999745697, 1.6839236998930573, 1.7019495000131428, 1.7179674999788404, 1.7349682999774814, 1.7509612999856472, 1.767970599932596, 1.7852915998082608, 1.8012316999956965, 1.818272199947387, 1.8348059998825192, 1.8507240999024361]
S19;7;0;0;1;False;1000;False;;8;27.17388460154691;drag;L;nan;nan;nan;nan;0.0019465000368654728;0.0020749999675899744;1686307784.8971508;1686307784.9112978;1686307785.6655788;1686307786.1660988;1686307787.132682;1686307787.1347306;[];[];[]
S19;7;0;0;1;False;1000;True;;8;-45.19721728479699;drag;L;3.713418;-5.017366;-53.49;6.24;1.8669865999836475;1.867084100143984;1686307787.7060251;1686307787.7110276;1686307788.465633;1686307788.9666898;1686307789.9479516;1686307791.815477;[0.0, 0.0, 0.0, 0.0, 0.0, 0.0, 0.0, 0.0, 0.0, 0.0, 0.0, 0.0, 0.0, 0.0, 0.0, 0.0, 0.0, 0.0, 0.0, 0.0, 0.0, 0.0, 0.0, 0.0, 0.0, 0.0, 0.0, 0.0, 0.0, 0.0, 0.0, 0.0, 0.0, 0.0, 0.0, 0.0, 0.0, 0.0, 0.0, 0.1700802, 0.36850712, 0.65197414, 0.9070944, 1.1055214, 1.3889884, 1.6157619, 1.7858423, 1.9275757, 2.012616, 2.1260026, 2.182696, 2.2393894, 2.3527763, 2.4378164, 2.4945097, 2.6078966, 2.6362433, 2.7212832, 2.7212832, 2.7496302, 2.7779768, 2.8063235, 2.8063235, 2.83467, 2.8630168, 2.8913634, 2.9197102, 3.0047503, 3.0330973, 3.1181371, 3.146484, 3.2031772, 3.2031772, 3.2598708, 3.2882173, 3.316564, 3.3732576, 3.3732576, 3.4016042, 3.4299507, 3.4299507, 3.4582977, 3.4866443, 3.4866443, 3.514991, 3.514991, 3.5433376, 3.5433376, 3.5716846, 3.6000311, 3.6000311, 3.6283777, 3.6567245, 3.6850712, 3.6850712, 3.713418, 3.713418, 3.713418, 3.713418, 3.713418, 3.713418, 3.713418, 3.713418, 3.713418, 3.713418, 3.713418, 3.713418, 3.713418, 3.713418, 3.713418, 3.713418, 3.713418];[0.0, 0.0, 0.0, 0.0, 0.0, 0.0, 0.0, 0.0, 0.0, 0.0, 0.0, 0.0, 0.0, 0.0, 0.0, 0.0, 0.0, 0.0, 0.0, 0.0, 0.0, 0.0, 0.0, 0.0, 0.0, 0.0, 0.0, 0.0, 0.0, 0.0, 0.0, 0.0, 0.0, 0.0, 0.0, 0.0, 0.0, 0.0, 0.0, -0.1133868, -0.2551203, -0.53858733, -0.73701423, -0.9921345, -1.3039483, -1.5307219, -1.7574955, -1.899229, -1.984269, -2.1543493, -2.2393894, -2.3527763, -2.4945097, -2.6078966, -2.7212832, -2.8630168, -2.9197102, -3.0330973, -3.0614438, -3.1181371, -3.1748307, -3.2031772, -3.2315238, -3.316564, -3.3732576, -3.4299507, -3.514991, -3.6283777, -3.6850712, -3.798458, -3.8551514, -3.9401915, -3.996885, -4.025232, -4.081925, -4.1386185, -4.1953115, -4.252005, -4.2803516, -4.337045, -4.365392, -4.3937387, -4.422086, -4.4504323, -4.5071254, -4.5071254, -4.5354724, -4.5921655, -4.620512, -4.6772056, -4.7055526, -4.762246, -4.847286, -4.9039793, -4.932326, -4.9890194, -5.017366, -5.017366, -5.017366, -5.017366, -5.017366, -5.017366, -5.017366, -5.017366, -5.017366, -5.017366, -5.017366, -5.017366, -5.017366, -5.017366, -5.017366, -5.017366];[0.0037420999724417925, 0.019451700150966644, 0.0345040000975132, 0.0524536999873817, 0.06847440009005368, 0.08547580009326339, 0.10146960010752082, 0.11847810004837811, 0.1354640000499785, 0.15240570018067956, 0.1684314999729395, 0.18556610005907714, 0.20246930001303554, 0.21848120004869998, 0.234994700178504, 0.25071910000406206, 0.26632399996742606, 0.28379140002653, 0.2998242999892682, 0.3179033000487834, 0.33394649997353554, 0.35185710014775395, 0.36772890016436577, 0.385174100054428, 0.4013189000543207, 0.41831290000118315, 0.43528840015642345, 0.45229590008966625, 0.4682871999684721, 0.48533680010586977, 0.5013757001142949, 0.5183697000611573, 0.5343310001771897, 0.5522863001096994, 0.568292000098154, 0.5852898999582976, 0.6012721001170576, 0.6182653000578284, 0.6352995000779629, 0.6522878999821842, 0.6692751001100987, 0.6852411001455039, 0.7012507000472397, 0.7192861000075936, 0.7342614000663161, 0.7522547000553459, 0.7703417001757771, 0.7852513999678195, 0.8024572001304477, 0.8194558001123369, 0.8368999001104385, 0.8531826001126319, 0.8702714000828564, 0.887167900102213, 0.9032408001367003, 0.9192540000658482, 0.9352861000224948, 0.9532870000693947, 0.9692421001382172, 0.9866148000583053, 1.0036643999628723, 1.0194733999669552, 1.0344569000881165, 1.0536072000395507, 1.069514400092885, 1.0865541000384837, 1.1026018999982625, 1.1218858000356704, 1.1359324001241475, 1.1528984000906348, 1.168872400186956, 1.1866987000685185, 1.2025181001517922, 1.2196172999683768, 1.236431400058791, 1.2514911000616848, 1.267580599989742, 1.2855520001612604, 1.3017426000442356, 1.3197981000412256, 1.3358881000895053, 1.3527089999988675, 1.3675583000294864, 1.386545600136742, 1.4016452000942081, 1.4187933001667261, 1.436706200009212, 1.4527313001453876, 1.4687634001020342, 1.4872226000297815, 1.5031819001305848, 1.5213741001207381, 1.5368000001180917, 1.5526537001132965, 1.5688279999885708, 1.5859006000682712, 1.6017152999993414, 1.6188156001735479, 1.6348245001863688, 1.6528328000567853, 1.6688672001473606, 1.6858002999797463, 1.701781400013715, 1.7187954999972135, 1.7348090000450611, 1.75178960012272, 1.7678320000413805, 1.7858192001003772, 1.8017933999653906, 1.8193251001648605, 1.8353730000089854, 1.8523752000182867]
S19;8;0;0;1;False;1000;True;;8;-156.29324867376673;drag;L;-6.9165955;-4.110272;-149.28;8.05;2.3665482001379132;2.3666471000760794;1686307792.5817268;1686307792.5946193;1686307793.3487144;1686307793.849113;1686307794.830381;1686307797.1972256;[0.0, 0.0, 0.0, 0.0, 0.0, 0.0, 0.0, 0.0, 0.0, 0.0, 0.0, 0.0, 0.0, 0.0, 0.0, 0.0, 0.0, 0.0, 0.0, 0.0, 0.0, 0.0, 0.0, 0.0, 0.0, 0.0, 0.0, 0.0, 0.0, 0.0, 0.0, 0.0, 0.0, 0.0, 0.0, 0.0, 0.0, -0.0283467, -0.0566934, -0.0850401, -0.14173351, -0.19842692, -0.2551203, -0.36850712, -0.48189393, -0.6803208, -0.8220543, -1.0204812, -1.2756016, -1.4456817, -1.6724553, -1.9559225, -2.1543493, -2.4378164, -2.6362433, -2.8630168, -3.0614438, -3.2031772, -3.3449106, -3.5433376, -3.6567245, -3.8834982, -4.025232, -4.252005, -4.3937387, -4.5354724, -4.6772056, -4.960673, -5.1591, -5.3858733, -5.5559535, -5.782727, -5.896114, -6.0095005, -6.094541, -6.2362742, -6.321315, -6.434701, -6.5197415, -6.6047816, -6.6614747, -6.6898212, -6.7465153, -6.774862, -6.8032084, -6.8599014, -6.888248, -6.9165955, -6.9732885, -6.9732885, -6.9732885, -7.0016356, -7.0016356, -7.029982, -7.029982, -7.0583286, -7.086675, -7.086675, -7.1150217, -7.1150217, -7.1150217, -7.1150217, -7.1150217, -7.1150217, -7.1150217, -7.1150217, -7.1150217, -7.1150217, -7.1150217, -7.1150217, -7.1150217, -7.086675, -7.0583286, -7.0583286, -7.029982, -7.029982, -7.029982, -7.0016356, -7.0016356, -7.0016356, -7.0016356, -6.9732885, -6.9732885, -6.9732885, -6.9732885, -6.944942, -6.944942, -6.944942, -6.9165955, -6.9165955, -6.9165955, -6.9165955, -6.9165955, -6.9165955, -6.9165955, -6.9165955, -6.9165955, -6.9165955, -6.9165955, -6.9165955, -6.9165955, -6.9165955];[0.0, 0.0, 0.0, 0.0, 0.0, 0.0, 0.0, 0.0, 0.0, 0.0, 0.0, 0.0, 0.0, 0.0, 0.0, 0.0, 0.0, 0.0, 0.0, 0.0, 0.0, 0.0, 0.0, 0.0, 0.0, 0.0, 0.0, 0.0, 0.0, 0.0, 0.0, 0.0, 0.0, 0.0, 0.0, 0.0, 0.0, -0.0283467, -0.0283467, -0.0566934, -0.0566934, -0.0850401, -0.1133868, -0.1700802, -0.19842692, -0.3118137, -0.39685383, -0.48189393, -0.6236274, -0.73701423, -0.85040104, -0.96378785, -1.0488279, -1.1905615, -1.2756016, -1.3606416, -1.417335, -1.4740285, -1.5307219, -1.5874153, -1.6441087, -1.7291489, -1.7574955, -1.899229, -1.9559225, -2.012616, -2.1260026, -2.2393894, -2.381123, -2.4945097, -2.6078966, -2.6929367, -2.7779768, -2.8630168, -2.9197102, -3.0330973, -3.0897903, -3.1748307, -3.2031772, -3.2598708, -3.316564, -3.3449106, -3.3732576, -3.4299507, -3.4299507, -3.514991, -3.5433376, -3.6000311, -3.6283777, -3.6567245, -3.6850712, -3.713418, -3.7417645, -3.770111, -3.798458, -3.8551514, -3.8834982, -3.8834982, -3.911845, -3.911845, -3.9401915, -3.968538, -3.968538, -3.968538, -3.968538, -3.968538, -3.968538, -3.968538, -3.968538, -3.968538, -3.968538, -3.968538, -3.996885, -3.996885, -4.025232, -4.025232, -4.025232, -4.0535784, -4.0535784, -4.081925, -4.081925, -4.081925, -4.081925, -4.081925, -4.081925, -4.081925, -4.081925, -4.110272, -4.110272, -4.110272, -4.110272, -4.110272, -4.110272, -4.110272, -4.110272, -4.110272, -4.110272, -4.110272, -4.110272, -4.110272, -4.110272, -4.110272];[0.0036367999855428934, 0.019741399912163615, 0.03569649998098612, 0.05267059989273548, 0.06871240003965795, 0.08529509999789298, 0.10231949994340539, 0.11935209995135665, 0.13556810002774, 0.1525385999120772, 0.16857680003158748, 0.18554279999807477, 0.20269849989563227, 0.2196243000216782, 0.23561430000700057, 0.2526968999300152, 0.2686709000263363, 0.2857407000847161, 0.30278109991922975, 0.31975849997252226, 0.3347352999262512, 0.35365880001336336, 0.36872579995542765, 0.3866802998818457, 0.40272939996793866, 0.419694900047034, 0.43510959995910525, 0.45281490008346736, 0.46884039998985827, 0.4868369000032544, 0.5031437000725418, 0.5198395000770688, 0.5358128000516444, 0.5528019999619573, 0.5698593999259174, 0.5868754000402987, 0.6017614998854697, 0.6198609999846667, 0.6359029999002814, 0.653864499880001, 0.6708768999669701, 0.6868165000341833, 0.7027137998957187, 0.7197229999583215, 0.7357348999939859, 0.7537183000240475, 0.7687359999399632, 0.7868033000268042, 0.8027903998736292, 0.819752800045535, 0.8358281999826431, 0.853823599871248, 0.8697533998638391, 0.8878287000115961, 0.9028453000355512, 0.9218661999329925, 0.9357942999340594, 0.9527507999446243, 0.9698490998707712, 0.9867880998644978, 1.0027018000837415, 1.0198053000494838, 1.0358557000290602, 1.0558102999348193, 1.0690671999473125, 1.0858374000526965, 1.10274269990623, 1.119642100064084, 1.1356613000389189, 1.154518699971959, 1.1687060999684036, 1.1888357000425458, 1.2038211999461055, 1.2216441999189556, 1.2360219999682158, 1.2530251999851316, 1.2690713999327272, 1.2871073000133038, 1.3031303999014199, 1.3219902000855654, 1.3381016999483109, 1.353063799906522, 1.3691058999393135, 1.3871110000181943, 1.4024730999954045, 1.4196210999507457, 1.436566699994728, 1.4536081000696868, 1.469543999992311, 1.486526699969545, 1.501547500025481, 1.5195895999204367, 1.5355024000164121, 1.5525567999575287, 1.5685882000252604, 1.5856377999298275, 1.6025610000360757, 1.6195908000227064, 1.6381007998716086, 1.6531320998910815, 1.6691076999995857, 1.6871154999826103, 1.7021355000324547, 1.7200911999680102, 1.7361069000326097, 1.7530594998970628, 1.7690995999146253, 1.7860916000790894, 1.8021279000677168, 1.8200888999272138, 1.8351105998735875, 1.8530516000464559, 1.8700880999676883, 1.8870927998796105, 1.904078199993819, 1.9200978998560458, 1.9360245999414474, 1.952450199984014, 1.968641199870035, 1.9894477999769151, 2.0016006000805646, 2.0195935000665486, 2.036639899946749, 2.052641599904746, 2.068623000057414, 2.0856198999099433, 2.101633399957791, 2.119526599999517, 2.1366453000809997, 2.1526508000679314, 2.1696516999509186, 2.186667599948123, 2.2026942998636514, 2.2196861999109387, 2.2356451000086963, 2.2526155000086874, 2.268619199981913, 2.2856188998557627, 2.3026322000660002, 2.3197037999052554, 2.336064799921587, 2.3526751999743283]
S19;9;0;0;1;False;3000;True;;8;61.38530480543354;drag;L;3.4299507;6.1228876;60.74;7.02;1.6996752999257296;1.6997698999475688;1686307798.069895;1686307798.0769324;1686307798.830965;1686307799.3324652;1686307802.3310308;1686307804.0313408;[0.0, 0.0, 0.0, 0.0, 0.0, 0.0, 0.0, 0.0, 0.0, 0.0, 0.0, 0.0, 0.0, 0.0, 0.0, 0.0, 0.0, 0.0, 0.0, 0.0, 0.0, 0.0, 0.0, 0.0, 0.0, 0.0, 0.0, 0.0, 0.0, 0.0, 0.0, 0.0, 0.0, 0.0283467, 0.1133868, 0.14173351, 0.1700802, 0.2267736, 0.2551203, 0.36850712, 0.48189393, 0.53858733, 0.65197414, 0.6803208, 0.79370767, 0.85040104, 0.93544114, 1.1055214, 1.2189082, 1.3606416, 1.4456817, 1.5307219, 1.6441087, 1.7291489, 1.8708823, 2.1260026, 2.211043, 2.2960827, 2.4378164, 2.4945097, 2.57955, 2.66459, 2.7496302, 2.8630168, 2.8913634, 2.9197102, 2.9764037, 3.0047503, 3.0047503, 3.0330973, 3.0897903, 3.1181371, 3.1748307, 3.2315238, 3.2882173, 3.2882173, 3.316564, 3.3449106, 3.3449106, 3.3732576, 3.4016042, 3.4016042, 3.4299507, 3.4299507, 3.4299507, 3.4299507, 3.4299507, 3.4299507, 3.4299507, 3.4299507, 3.4299507, 3.4299507, 3.4299507, 3.4299507, 3.4299507, 3.4299507, 3.4299507, 3.4299507, 3.4299507, 3.4299507, 3.4299507, 3.4299507];[0.0, 0.0, 0.0, 0.0, 0.0, 0.0, 0.0, 0.0, 0.0, 0.0, 0.0, 0.0, 0.0, 0.0, 0.0, 0.0, 0.0, 0.0, 0.0, 0.0, 0.0, 0.0, 0.0, 0.0, 0.0, 0.0, 0.0, 0.0, 0.0, 0.0, 0.0, 0.0, 0.0566934, 0.3401604, 0.76536095, 0.93544114, 1.1055214, 1.1905615, 1.2472548, 1.417335, 1.5874153, 1.7008021, 1.899229, 2.012616, 2.211043, 2.3527763, 2.4945097, 2.7779768, 2.9764037, 3.1748307, 3.3449106, 3.4299507, 3.5433376, 3.6283777, 3.798458, 4.025232, 4.1386185, 4.252005, 4.365392, 4.4504323, 4.5921655, 4.7055526, 4.875633, 5.045713, 5.1024065, 5.1591, 5.215793, 5.2441397, 5.300833, 5.32918, 5.3858733, 5.41422, 5.4992604, 5.5559535, 5.6409936, 5.697687, 5.7260337, 5.782727, 5.811074, 5.811074, 5.896114, 5.9528074, 5.981154, 6.037847, 6.0661945, 6.094541, 6.1228876, 6.1228876, 6.1228876, 6.1228876, 6.1228876, 6.1228876, 6.1228876, 6.1228876, 6.1228876, 6.1228876, 6.1228876, 6.1228876, 6.1228876, 6.1228876, 6.1228876, 6.1228876];[0.0037676000501960516, 0.017776800086721778, 0.035824600141495466, 0.0507752001285553, 0.0688527999445796, 0.08476760005578399, 0.10180080006830394, 0.11779229994863272, 0.1347706001251936, 0.1507788000162691, 0.16869090008549392, 0.18510620016604662, 0.20213049999438226, 0.21815189998596907, 0.2351494999602437, 0.25113989994861186, 0.26789320004172623, 0.28362330002710223, 0.30093550006859004, 0.31693780003115535, 0.3349461001344025, 0.3509315000846982, 0.3689842999447137, 0.3840306999627501, 0.40201460011303425, 0.4179692999459803, 0.4349096999503672, 0.45131210004910827, 0.46790300006978214, 0.48389660008251667, 0.501886900048703, 0.5168662001378834, 0.5348984999582171, 0.551876800134778, 0.5689477000851184, 0.5839462000876665, 0.6028915999922901, 0.6169072000775486, 0.6348633000161499, 0.6508510999847203, 0.6679237999487668, 0.6837993999943137, 0.7020004000514746, 0.7170019000768661, 0.736950300168246, 0.750896800076589, 0.7679449999704957, 0.7849467000924051, 0.8019596999511123, 0.8168518000748008, 0.834963500034064, 0.8508679999504238, 0.8699966000858694, 0.8838724000379443, 0.9018179001286626, 0.9179828001651913, 0.9349336000159383, 0.9508144001010805, 0.96792530012317, 0.9839232000522316, 1.0028985000681132, 1.0168528000358492, 1.0348759000189602, 1.0519181001000106, 1.0689030999783427, 1.0839486999902874, 1.101916200015694, 1.1169146001338959, 1.1349774999544024, 1.1509911001194268, 1.168969599995762, 1.1847653000149876, 1.2009501999709755, 1.217941600130871, 1.2349569001235068, 1.2509683000389487, 1.2680103001184762, 1.2849354001227766, 1.3009371999651194, 1.3169854001607746, 1.3349854999687523, 1.3509257000405341, 1.368989499984309, 1.3840161000844091, 1.401904599973932, 1.4169221001211554, 1.4338481000158936, 1.450970800127834, 1.4679676000960171, 1.4840886001475155, 1.5009894000831991, 1.5169814999680966, 1.5350131001323462, 1.551004600012675, 1.569013300118968, 1.584014300024137, 1.602317500161007, 1.6189546000678092, 1.6348985000513494, 1.6498924000188708, 1.667824000120163, 1.6839308999478817]
S19;10;0;0;1;False;3000;True;;8;-84.18000570664368;drag;L;0.85040104;-6.3496614;-82.37;6.41;1.7823340999893844;1.7824292001314461;1686307804.8759246;1686307804.8929446;1686307805.6470234;1686307806.148869;1686307809.1472864;1686307810.929652;[0.0, 0.0, 0.0, 0.0, 0.0, 0.0, 0.0, 0.0, 0.0, 0.0, 0.0, 0.0, 0.0, 0.0, 0.0, 0.0, 0.0, 0.0, 0.0, 0.0, 0.0, 0.0, 0.0, 0.0, 0.0, 0.0, 0.0, 0.0, 0.0, 0.0, 0.0, 0.0, 0.0, 0.0, 0.0, 0.0, 0.0283467, 0.0850401, 0.14173351, 0.28346702, 0.36850712, 0.42520052, 0.56693405, 0.65197414, 0.7086675, 0.76536095, 0.79370767, 0.79370767, 0.79370767, 0.79370767, 0.79370767, 0.79370767, 0.79370767, 0.79370767, 0.79370767, 0.8220543, 0.8220543, 0.8220543, 0.8220543, 0.8220543, 0.8220543, 0.8220543, 0.8220543, 0.8220543, 0.8220543, 0.8220543, 0.8220543, 0.8220543, 0.8220543, 0.8220543, 0.8220543, 0.8220543, 0.8220543, 0.8220543, 0.8220543, 0.8220543, 0.8220543, 0.8220543, 0.8220543, 0.8220543, 0.8220543, 0.8220543, 0.8220543, 0.8220543, 0.8220543, 0.8220543, 0.8220543, 0.85040104, 0.85040104, 0.85040104, 0.85040104, 0.85040104, 0.85040104, 0.85040104, 0.85040104, 0.85040104, 0.85040104, 0.85040104, 0.85040104, 0.85040104, 0.85040104, 0.85040104, 0.85040104, 0.85040104, 0.85040104, 0.85040104, 0.85040104];[0.0, 0.0, 0.0, 0.0, 0.0, 0.0, 0.0, 0.0, 0.0, 0.0, 0.0, 0.0, 0.0, 0.0, 0.0, 0.0, 0.0, 0.0, 0.0, 0.0, 0.0, 0.0, 0.0, 0.0, 0.0, 0.0, 0.0, 0.0, 0.0, 0.0, 0.0, 0.0, 0.0, 0.0, -0.0566934, -0.3118137, -0.8220543, -1.1622148, -1.5307219, -2.0409625, -2.3244295, -2.6078966, -3.0330973, -3.316564, -3.713418, -3.968538, -4.110272, -4.3086987, -4.478779, -4.6772056, -4.960673, -5.1874466, -5.3575263, -5.5559535, -5.612647, -5.7260337, -5.782727, -5.811074, -5.8677673, -5.896114, -5.896114, -5.924461, -5.924461, -5.9528074, -5.9528074, -5.9528074, -5.9528074, -5.9528074, -5.9528074, -5.9528074, -5.9528074, -5.9528074, -5.9528074, -5.9528074, -5.9528074, -5.9528074, -5.9528074, -5.9528074, -5.9528074, -5.9528074, -5.9528074, -5.981154, -6.0095005, -6.037847, -6.0661945, -6.1228876, -6.151234, -6.151234, -6.2079277, -6.2362742, -6.264621, -6.292968, -6.321315, -6.3496614, -6.3496614, -6.3496614, -6.3496614, -6.3496614, -6.3496614, -6.3496614, -6.3496614, -6.3496614, -6.3496614, -6.3496614, -6.3496614, -6.3496614, -6.3496614];[0.0036371001042425632, 0.01764279999770224, 0.03460000013001263, 0.05061780009418726, 0.06877240003086627, 0.08476220001466572, 0.10178580018691719, 0.11773820011876523, 0.13478250009939075, 0.15074880002066493, 0.16778790019452572, 0.1838036000262946, 0.20179560012184083, 0.2177848001010716, 0.23476270004175603, 0.2507712000515312, 0.26780050015076995, 0.2836453001946211, 0.3018016000278294, 0.31714960001409054, 0.3341885001864284, 0.35115560004487634, 0.3681780002079904, 0.3841443001292646, 0.40215140022337437, 0.41696530021727085, 0.4351526000536978, 0.4511853000149131, 0.4681570001412183, 0.48416950018145144, 0.5021385001018643, 0.5181463002227247, 0.5351607000920922, 0.552147300215438, 0.5691904001869261, 0.5851039001718163, 0.6049076002091169, 0.6180377001874149, 0.6351388001348823, 0.6520720000844449, 0.6680901001673192, 0.6861331001855433, 0.7021023000124842, 0.7180975000374019, 0.7360829000826925, 0.7510729001369327, 0.768097200198099, 0.785088200122118, 0.8023936001118273, 0.8183830000925809, 0.8353731001261622, 0.8513980000279844, 0.8682404002174735, 0.8843099002260715, 0.9012547000311315, 0.9192728002090007, 0.9353097002021968, 0.9512083001900464, 0.9693505000323057, 0.9853466001804918, 1.0013423000928015, 1.0173453001771122, 1.0354111001361161, 1.0513286001514643, 1.0683470000512898, 1.0843503000214696, 1.1013470001053065, 1.1183451001998037, 1.1352290001232177, 1.1502416001167148, 1.1682597000617534, 1.1843489001039416, 1.2013317001983523, 1.2194488001987338, 1.2353702001273632, 1.2514409001450986, 1.2681801000144333, 1.2852491000667214, 1.3012805001344532, 1.3180556001607329, 1.3350900001823902, 1.351008500205353, 1.3705735001713037, 1.3846239000558853, 1.4015860001090914, 1.4185507001820952, 1.4355012001469731, 1.4505294000264257, 1.4686073001939803, 1.4855554001405835, 1.502595400204882, 1.5182681002188474, 1.5352485000621527, 1.5507302000187337, 1.5687568001449108, 1.5848140001762658, 1.6017346000298858, 1.6177395000122488, 1.634777800180018, 1.6507759001106024, 1.6687961001880467, 1.684833100065589, 1.702730700140819, 1.7180725000798702, 1.735077200224623, 1.7520157000981271, 1.7679101000539958]
S19;11;0;0;1;False;1000;True;;8;-61.30162907663077;drag;L;3.8551514;-6.9732885;-61.06;7.97;1.3662301001604646;1.3663308001123369;1686307811.7463315;1686307811.7603347;1686307812.513493;1686307813.014909;1686307813.996463;1686307815.3631215;[0.0, 0.0, 0.0, 0.0, 0.0, 0.0, 0.0, 0.0, 0.0, 0.0, 0.0, 0.0, 0.0, 0.0, 0.0, 0.0, 0.0, 0.0, 0.0, 0.0, 0.0, 0.0, 0.0, 0.0, 0.0, 0.0, 0.0, 0.0, 0.3401604, 1.1622148, 1.3889884, 1.6441087, 1.7858423, 1.8708823, 1.984269, 2.0409625, 2.1260026, 2.211043, 2.2677362, 2.3527763, 2.4378164, 2.4945097, 2.6078966, 2.6362433, 2.6929367, 2.7779768, 2.8630168, 2.9197102, 3.0330973, 3.0897903, 3.1748307, 3.2598708, 3.3449106, 3.4299507, 3.4582977, 3.514991, 3.5433376, 3.5433376, 3.5716846, 3.6000311, 3.6283777, 3.6283777, 3.6567245, 3.6567245, 3.6850712, 3.7417645, 3.770111, 3.798458, 3.8268046, 3.8551514, 3.8551514, 3.8551514, 3.8551514, 3.8551514, 3.8551514, 3.8551514, 3.8551514, 3.8551514, 3.8551514, 3.8551514, 3.8551514, 3.8551514];[0.0, 0.0, 0.0, 0.0, 0.0, 0.0, 0.0, 0.0, 0.0, 0.0, 0.0, 0.0, 0.0, 0.0, 0.0, 0.0, 0.0, 0.0, 0.0, 0.0, 0.0, 0.0, 0.0, 0.0, 0.0, 0.0, 0.0, 0.0, -0.59528077, -2.2960827, -2.9197102, -3.6567245, -4.025232, -4.1953115, -4.422086, -4.5354724, -4.648859, -4.7905927, -4.875633, -4.9890194, -5.1024065, -5.1874466, -5.32918, -5.3858733, -5.4992604, -5.66934, -5.75438, -5.8677673, -6.0095005, -6.1228876, -6.2362742, -6.3496614, -6.434701, -6.548088, -6.6047816, -6.6614747, -6.6614747, -6.7181687, -6.7181687, -6.7465153, -6.7465153, -6.774862, -6.774862, -6.8032084, -6.831555, -6.8599014, -6.888248, -6.9165955, -6.944942, -6.9732885, -6.9732885, -6.9732885, -6.9732885, -6.9732885, -6.9732885, -6.9732885, -6.9732885, -6.9732885, -6.9732885, -6.9732885, -6.9732885, -6.9732885];[0.003558000084012747, 0.02051139995455742, 0.03548409999348223, 0.05278260004706681, 0.06877269991673529, 0.08581489999778569, 0.10176500002853572, 0.11876580002717674, 0.13478350010700524, 0.15177259990014136, 0.1677850999403745, 0.1857656000647694, 0.20172740006819367, 0.2187894000671804, 0.23573620012030005, 0.25163690000772476, 0.26778499991633, 0.28572760010138154, 0.3007573999930173, 0.31874109990894794, 0.3347585001029074, 0.3517464001197368, 0.3681115999352187, 0.3851753000635654, 0.4012394999153912, 0.4191562000196427, 0.4341096000280231, 0.45211419998668134, 0.46821799990721047, 0.4871106001082808, 0.5021496000699699, 0.5219922999385744, 0.5349616000894457, 0.5530365000013262, 0.570617499994114, 0.5868228999897838, 0.6018362001050264, 0.6198700000531971, 0.6358223001006991, 0.6551922999788076, 0.6692892001010478, 0.6872825999744236, 0.7043260000646114, 0.7202161001041532, 0.7352807999122888, 0.7531856000423431, 0.7693459999281913, 0.7862692000344396, 0.8023167001083493, 0.8193552000448108, 0.8353126000147313, 0.8523003999143839, 0.8693131001200527, 0.8863407000899315, 0.9023100000340492, 0.9213101000059396, 0.9353016000241041, 0.9523867000825703, 0.9683892000466585, 0.9853310999460518, 1.0013872999697924, 1.019544699927792, 1.035250199958682, 1.0522876000031829, 1.0682904999703169, 1.0862682999577373, 1.1042563999071717, 1.119288600049913, 1.1343052999582142, 1.1532789999619126, 1.1682746999431401, 1.1862578000873327, 1.2013081000186503, 1.2182879999745637, 1.2342874000314623, 1.2523604000452906, 1.268328299978748, 1.285282399971038, 1.3012842000462115, 1.319285900099203, 1.3353001999203116, 1.3532769000157714]
S19;12;0;0;1;False;3000;True;;8;-134.01645658438161;drag;L;-6.3496614;-7.029982;-132.09;9.47;1.535268999869004;1.5353141000960022;1686307816.063246;1686307816.0762472;1686307816.8299828;1686307817.3316057;1686307820.328303;1686307821.8643177;[0.0, 0.0, 0.0, 0.0, 0.0, 0.0, 0.0, 0.0, 0.0, 0.0, 0.0, 0.0, 0.0, 0.0, 0.0, 0.0, 0.0, 0.0, 0.0, 0.0, 0.0, 0.0, 0.0, 0.0, 0.0, 0.0, 0.0, 0.0, 0.0, -0.48189393, -0.9070944, -1.3039483, -1.8708823, -2.182696, -2.57955, -2.7779768, -3.0047503, -3.0897903, -3.1748307, -3.2598708, -3.316564, -3.3732576, -3.4016042, -3.4582977, -3.514991, -3.5433376, -3.5716846, -3.6283777, -3.6850712, -3.770111, -3.9401915, -4.110272, -4.2803516, -4.5921655, -4.847286, -5.017366, -5.2724867, -5.41422, -5.5843005, -5.7260337, -5.811074, -5.981154, -6.037847, -6.1228876, -6.1795807, -6.2079277, -6.264621, -6.264621, -6.292968, -6.321315, -6.321315, -6.321315, -6.3496614, -6.3496614, -6.3496614, -6.3496614, -6.3496614, -6.3496614, -6.3496614, -6.3496614, -6.3496614, -6.3496614, -6.3496614, -6.3496614, -6.3496614, -6.3496614, -6.3496614, -6.3496614, -6.3496614, -6.3496614, -6.3496614, -6.3496614];[0.0, 0.0, 0.0, 0.0, 0.0, 0.0, 0.0, 0.0, 0.0, 0.0, 0.0, 0.0, 0.0, 0.0, 0.0, 0.0, 0.0, 0.0, 0.0, 0.0, 0.0, 0.0, 0.0, 0.0, 0.0, 0.0, 0.0, 0.0, 0.0, -0.5102406, -0.9921345, -1.417335, -2.0409625, -2.4094696, -2.948057, -3.2315238, -3.5433376, -3.713418, -3.8834982, -4.110272, -4.3086987, -4.422086, -4.648859, -4.733899, -4.9039793, -4.9890194, -5.1024065, -5.2724867, -5.3575263, -5.4709134, -5.697687, -5.8677673, -6.0095005, -6.264621, -6.434701, -6.548088, -6.6614747, -6.7465153, -6.831555, -6.888248, -6.888248, -6.944942, -6.9732885, -6.9732885, -7.0016356, -7.0016356, -7.029982, -7.029982, -7.029982, -7.029982, -7.029982, -7.029982, -7.029982, -7.029982, -7.029982, -7.029982, -7.029982, -7.029982, -7.029982, -7.029982, -7.029982, -7.029982, -7.029982, -7.029982, -7.029982, -7.029982, -7.029982, -7.029982, -7.029982, -7.029982, -7.029982, -7.029982];[0.0033346000127494335, 0.01741879992187023, 0.03536360012367368, 0.05259150010533631, 0.06957060005515814, 0.08556749997660518, 0.10299889999441803, 0.11895829997956753, 0.13700210000388324, 0.15302520012483, 0.1700196999590844, 0.18599299993366003, 0.20298720011487603, 0.21902540000155568, 0.23695809999480844, 0.25295300013385713, 0.26999650010839105, 0.2857621000148356, 0.3018481000326574, 0.31884859991259873, 0.33592989994212985, 0.3519800000358373, 0.36897579999640584, 0.38496079994365573, 0.4020084000658244, 0.41950959991663694, 0.435049100080505, 0.45204160013236105, 0.4700076999142766, 0.4854200000409037, 0.5019751000218093, 0.5190801001153886, 0.5370910000056028, 0.5522241999860853, 0.5688690000679344, 0.585022300016135, 0.6050988999195397, 0.6183889000676572, 0.6359866999555379, 0.6529055000282824, 0.6700617999304086, 0.6853398000821471, 0.7019617001060396, 0.7190366999711841, 0.7380661000497639, 0.7519326000474393, 0.7689269999973476, 0.7869299999438226, 0.8028971999883652, 0.8174185999669135, 0.8354078000411391, 0.8524394000414759, 0.8694674000144005, 0.8855107999406755, 0.9025363000109792, 0.9194923001341522, 0.9364821000490338, 0.9524681000038981, 0.9696043999865651, 0.9855947999749333, 1.0017053000628948, 1.0194222999271005, 1.035567499930039, 1.0546665999572724, 1.0696165999397635, 1.0845441001001745, 1.1025817999616265, 1.1187221999280155, 1.1406467999331653, 1.1516653001308441, 1.1697452999651432, 1.1868163000326604, 1.2048081001266837, 1.2197321001440287, 1.2356593001168221, 1.2527457000687718, 1.270815100055188, 1.2868216999340802, 1.3026856000069529, 1.3187522999942303, 1.3368065999820828, 1.3528726000804454, 1.3696791999973357, 1.3857402000576258, 1.4038100000470877, 1.4198116001207381, 1.4356732000596821, 1.4527885001152754, 1.4704626000020653, 1.4863420999608934, 1.5015197999309748, 1.5185225999448448]
S19;13;0;0;1;False;1000;True;;8;-116.2161638371552;drag;L;-4.1953115;-6.548088;-122.65;7.78;1.5324584001209587;1.5326008000411093;1686307822.5254002;1686307822.5424685;1686307823.2964997;1686307823.7976165;1686307824.7797878;1686307826.3120687;[0.0, 0.0, 0.0, 0.0, 0.0, 0.0, 0.0, 0.0, 0.0, 0.0, 0.0, 0.0, 0.0, 0.0, 0.0, 0.0, 0.0, 0.0, 0.0, 0.0, 0.0, 0.0, 0.0, 0.0, 0.0, 0.0, 0.0, 0.0, -0.1700802, -0.9070944, -1.0771747, -1.3039483, -1.4456817, -1.6157619, -1.7008021, -1.8141888, -1.899229, -2.012616, -2.0693092, -2.1543493, -2.211043, -2.2960827, -2.381123, -2.4378164, -2.5512033, -2.6078966, -2.66459, -2.7496302, -2.8063235, -2.8630168, -2.948057, -2.9764037, -3.0330973, -3.1181371, -3.1748307, -3.2882173, -3.3732576, -3.4582977, -3.6000311, -3.713418, -3.8551514, -3.8834982, -3.9401915, -4.025232, -4.0535784, -4.081925, -4.1386185, -4.1386185, -4.166965, -4.166965, -4.166965, -4.166965, -4.166965, -4.166965, -4.1953115, -4.1953115, -4.1953115, -4.1953115, -4.1953115, -4.1953115, -4.1953115, -4.1953115, -4.1953115, -4.1953115, -4.1953115, -4.1953115, -4.1953115, -4.1953115, -4.1953115, -4.1953115, -4.1953115, -4.1953115];[0.0, 0.0, 0.0, 0.0, 0.0, 0.0, 0.0, 0.0, 0.0, 0.0, 0.0, 0.0, 0.0, 0.0, 0.0, 0.0, 0.0, 0.0, 0.0, 0.0, 0.0, 0.0, 0.0, 0.0, 0.0, 0.0, 0.0, 0.0, -0.5102406, -2.4378164, -2.9764037, -3.6283777, -3.9401915, -4.365392, -4.5921655, -4.875633, -5.130753, -5.41422, -5.527607, -5.697687, -5.811074, -5.981154, -6.1228876, -6.2362742, -6.378008, -6.4630475, -6.548088, -6.6614747, -6.7181687, -6.8032084, -6.888248, -6.944942, -6.9732885, -7.0583286, -7.086675, -7.143369, -7.1717157, -7.1717157, -7.1717157, -7.1717157, -7.086675, -7.0583286, -7.029982, -6.944942, -6.888248, -6.831555, -6.7465153, -6.7181687, -6.6614747, -6.6047816, -6.5764346, -6.5764346, -6.548088, -6.548088, -6.548088, -6.548088, -6.548088, -6.548088, -6.548088, -6.548088, -6.548088, -6.548088, -6.548088, -6.548088, -6.548088, -6.548088, -6.548088, -6.548088, -6.548088, -6.548088, -6.548088, -6.548088];[0.0038845001254230738, 0.01788310008123517, 0.033986200112849474, 0.05202649999409914, 0.0679736000020057, 0.08503339998424053, 0.10100260004401207, 0.11900019994936883, 0.13398310006596148, 0.15203320002183318, 0.1680137999355793, 0.1850102001335472, 0.20102240005508065, 0.21900440007448196, 0.23501699999906123, 0.252189900027588, 0.26785050006583333, 0.28491739998571575, 0.30093150003813207, 0.31899740011431277, 0.33505150000564754, 0.35222449991852045, 0.36790920002385974, 0.3850098999682814, 0.40100960014387965, 0.4199083000421524, 0.4338963001500815, 0.4531205000821501, 0.4691038001328707, 0.4850252000615001, 0.5020757999736816, 0.5201773000881076, 0.5348000000230968, 0.5550456999335438, 0.5680545000359416, 0.5859696001280099, 0.6031108000315726, 0.6191323001403362, 0.6350728999823332, 0.6534303000662476, 0.6689645999576896, 0.6878613999579102, 0.7008336000144482, 0.7190435000229627, 0.7388991999905556, 0.7519567001145333, 0.768091700039804, 0.786015999969095, 0.8010933001060039, 0.8194866001140326, 0.8365110999438912, 0.8534077000804245, 0.8696095000486821, 0.8854875999968499, 0.9014733999501914, 0.9205160001292825, 0.9354914999566972, 0.9525361999403685, 0.9686295001301914, 0.9855027000885457, 1.0044825000222772, 1.019473799970001, 1.0344736000988632, 1.0524816999677569, 1.0684621999971569, 1.0884595001116395, 1.1014402001164854, 1.118494899943471, 1.1355145999696106, 1.1524763000197709, 1.1684694001451135, 1.1854507999960333, 1.2015060000121593, 1.2194751999340951, 1.2342608999460936, 1.2525287999305874, 1.268279500072822, 1.2849376001395285, 1.3009844000916928, 1.3190190999303013, 1.3349628001451492, 1.3520039001014084, 1.3680126001127064, 1.3850020000245422, 1.4009656000416726, 1.418976299930364, 1.434962600003928, 1.4519788001198322, 1.4679199999663979, 1.4851148000452667, 1.5009562999475747, 1.5191025999374688]
S19;14;0;0;1;False;3000;True;;8;-15.750739274675917;drag;L;4.478779;-3.9401915;-41.34;5.97;1.5343615000601858;1.5344455000013113;1686307827.190581;1686307827.2086985;1686307827.9636624;1686307828.4642835;1686307831.463286;1686307832.9976249;[0.0, 0.0, 0.0, 0.0, 0.0, 0.0, 0.0, 0.0, 0.0, 0.0, 0.0, 0.0, 0.0, 0.0, 0.0, 0.0, 0.0, 0.0, 0.0, 0.0, 0.0, 0.0, 0.0, 0.0, 0.0, 0.0, 0.93544114, 1.3039483, 1.5023751, 1.6157619, 1.7008021, 1.8141888, 1.984269, 2.0976558, 2.3244295, 2.466163, 2.6929367, 2.8063235, 3.0047503, 3.1181371, 3.2315238, 3.3449106, 3.5433376, 3.6283777, 3.7417645, 3.798458, 3.8834982, 3.9401915, 3.996885, 4.081925, 4.166965, 4.1953115, 4.252005, 4.252005, 4.3086987, 4.337045, 4.365392, 4.422086, 4.478779, 4.5354724, 4.563819, 4.620512, 4.648859, 4.648859, 4.6772056, 4.6772056, 4.6772056, 4.6772056, 4.6772056, 4.6772056, 4.6772056, 4.6772056, 4.648859, 4.648859, 4.620512, 4.5921655, 4.563819, 4.5354724, 4.5354724, 4.5354724, 4.478779, 4.478779, 4.478779, 4.478779, 4.478779, 4.478779, 4.478779, 4.478779, 4.478779, 4.478779, 4.478779, 4.478779];[0.0, 0.0, 0.0, 0.0, 0.0, 0.0, 0.0, 0.0, 0.0, 0.0, 0.0, 0.0, 0.0, 0.0, 0.0, 0.0, 0.0, 0.0, 0.0, 0.0, 0.0, 0.0, 0.0, 0.0, 0.0, 0.0, -0.36850712, -0.56693405, -0.65197414, -0.73701423, -0.79370767, -0.85040104, -0.93544114, -0.96378785, -1.1055214, -1.1622148, -1.2756016, -1.3606416, -1.4740285, -1.5590686, -1.6157619, -1.7008021, -1.7574955, -1.7858423, -1.8708823, -1.899229, -1.9559225, -2.0409625, -2.1543493, -2.2960827, -2.5512033, -2.7496302, -2.948057, -3.0330973, -3.1181371, -3.2315238, -3.2882173, -3.3732576, -3.4582977, -3.514991, -3.5433376, -3.6283777, -3.6567245, -3.6850712, -3.7417645, -3.770111, -3.798458, -3.798458, -3.8268046, -3.8551514, -3.8551514, -3.8834982, -3.8834982, -3.911845, -3.911845, -3.9401915, -3.9401915, -3.9401915, -3.9401915, -3.9401915, -3.9401915, -3.9401915, -3.9401915, -3.9401915, -3.9401915, -3.9401915, -3.9401915, -3.9401915, -3.9401915, -3.9401915, -3.9401915, -3.9401915];[0.004085500026121736, 0.01810200000181794, 0.035072100115939975, 0.051071699941530824, 0.06808599992655218, 0.08411990012973547, 0.10210589994676411, 0.11810899991542101, 0.13510309997946024, 0.15108580002561212, 0.16807630006223917, 0.1841613999567926, 0.2017665000166744, 0.21781870000995696, 0.23485030001029372, 0.2509304000996053, 0.2682765000499785, 0.2841773999389261, 0.301206799922511, 0.31816660007461905, 0.3351855999790132, 0.35117290006019175, 0.3681904000695795, 0.38490130007267, 0.40190059994347394, 0.4189128999132663, 0.4358926999848336, 0.45188589999452233, 0.46987079991959035, 0.48384479992091656, 0.5017933999188244, 0.516827299958095, 0.5348348999395967, 0.550889200065285, 0.56891810009256, 0.5838868001010269, 0.6036497999448329, 0.6188886999152601, 0.6377606999594718, 0.6507719999644905, 0.6689122000243515, 0.6848703001160175, 0.7027932999189943, 0.7177393999882042, 0.7367553000804037, 0.750711299944669, 0.7682994001079351, 0.7850842999760062, 0.8010895999614149, 0.8174493000842631, 0.8351974999532104, 0.8521146001294255, 0.8702249000780284, 0.8852210999466479, 0.9022147001232952, 0.9191958999726921, 0.9352114000357687, 0.9512533999513835, 0.969261399935931, 0.9853215001057833, 1.0013180999085307, 1.0181493000127375, 1.0351454000920057, 1.050256700022146, 1.0700340999756008, 1.0849611000157893, 1.101932300021872, 1.1169555999804288, 1.1358392999973148, 1.1519947000779212, 1.1679521000478417, 1.1853748001158237, 1.2014240000862628, 1.218380100093782, 1.2353914000559598, 1.250377600081265, 1.268404999980703, 1.2843663000967354, 1.3013891999144107, 1.317407000111416, 1.3353711999952793, 1.3514141999185085, 1.367431400110945, 1.3845492000691593, 1.4015605000313371, 1.4175684999208897, 1.4345839999150485, 1.4505032999441028, 1.468420600052923, 1.48439919995144, 1.5016578999347985, 1.5169518000911921]
S19;15;0;0;1;False;1000;True;;8;-54.416285845705026;drag;L;4.762246;-6.151234;-52.25;7.78;1.4851695001125336;1.4852533999364823;1686307833.7578702;1686307833.7749493;1686307834.529277;1686307835.0304217;1686307836.0115075;1686307837.4968803;[0.0, 0.0, 0.0, 0.0, 0.0, 0.0, 0.0, 0.0, 0.0, 0.0, 0.0, 0.0, 0.0, 0.0, 0.0, 0.0, 0.0, 0.0, 0.0, 0.0, 0.0, 0.0, 0.0, 0.0, 0.0, 0.0, 1.5023751, 2.0693092, 2.5228565, 2.7496302, 2.8630168, 3.0047503, 3.1181371, 3.2315238, 3.2882173, 3.3732576, 3.4299507, 3.514991, 3.6000311, 3.713418, 3.798458, 3.9401915, 4.025232, 4.081925, 4.1953115, 4.252005, 4.3086987, 4.365392, 4.3937387, 4.478779, 4.5354724, 4.5921655, 4.648859, 4.7055526, 4.733899, 4.733899, 4.762246, 4.762246, 4.7905927, 4.818939, 4.818939, 4.818939, 4.818939, 4.818939, 4.818939, 4.818939, 4.818939, 4.818939, 4.7905927, 4.7905927, 4.7905927, 4.762246, 4.762246, 4.762246, 4.762246, 4.762246, 4.762246, 4.762246, 4.762246, 4.762246, 4.762246, 4.762246, 4.762246, 4.762246, 4.762246, 4.762246, 4.762246, 4.762246, 4.762246];[0.0, 0.0, 0.0, 0.0, 0.0, 0.0, 0.0, 0.0, 0.0, 0.0, 0.0, 0.0, 0.0, 0.0, 0.0, 0.0, 0.0, 0.0, 0.0, 0.0, 0.0, 0.0, 0.0, 0.0, 0.0, 0.0, -2.381123, -3.4866443, -4.2236586, -4.563819, -4.762246, -4.9039793, -4.960673, -5.045713, -5.1024065, -5.130753, -5.1874466, -5.2441397, -5.300833, -5.4425664, -5.4992604, -5.612647, -5.66934, -5.7260337, -5.75438, -5.811074, -5.811074, -5.8394203, -5.8394203, -5.8394203, -5.8394203, -5.8394203, -5.8394203, -5.8394203, -5.8394203, -5.8394203, -5.8394203, -5.8394203, -5.8394203, -5.8394203, -5.8394203, -5.8394203, -5.8394203, -5.896114, -5.896114, -5.896114, -5.924461, -5.9528074, -5.981154, -6.0095005, -6.0661945, -6.0661945, -6.094541, -6.1228876, -6.1228876, -6.151234, -6.151234, -6.151234, -6.151234, -6.151234, -6.151234, -6.151234, -6.151234, -6.151234, -6.151234, -6.151234, -6.151234, -6.151234, -6.151234];[0.0037456999998539686, 0.019824400078505278, 0.035693899961188436, 0.05266909999772906, 0.06876299995929003, 0.08573850011453032, 0.10279670008458197, 0.11983050010167062, 0.13579079997725785, 0.15281490003690124, 0.1688240000512451, 0.18683949997648597, 0.20178570016287267, 0.21877850010059774, 0.23477730015292764, 0.25224509998224676, 0.2683196000289172, 0.28525139996781945, 0.3012511001434177, 0.3192106999922544, 0.3352300999686122, 0.35225630016066134, 0.3682792999316007, 0.3862588999327272, 0.4012784999795258, 0.4202497999649495, 0.4363039000891149, 0.45336490008048713, 0.4713200000114739, 0.48727339995093644, 0.5032975000794977, 0.5192682000342757, 0.5361522999592125, 0.5541666999924928, 0.5692780001554638, 0.586303099989891, 0.6032655001617968, 0.6211872000712901, 0.6372820001561195, 0.6543227001093328, 0.6702862000092864, 0.6882986000273377, 0.7023414000868797, 0.7201748001389205, 0.7371692999731749, 0.75328109995462, 0.7703116000629961, 0.7881710999645293, 0.8022746001370251, 0.8211930999532342, 0.8355934999417514, 0.8528182001318783, 0.8698969001416117, 0.8869101000018418, 0.904924200149253, 0.9199266999494284, 0.9359265000093728, 0.9529304001480341, 0.9690048000775278, 0.9869222999550402, 1.002899100072682, 1.0199072000104934, 1.0357435001060367, 1.0528923999518156, 1.068914300063625, 1.0869299999903888, 1.101812400156632, 1.1199666000902653, 1.1378738000057638, 1.1529205001424998, 1.1721729000564665, 1.1861618000548333, 1.2021902000997216, 1.219214400043711, 1.2362550001125783, 1.2533285000827163, 1.2692152000963688, 1.2861802999395877, 1.3021750999614596, 1.3202649001032114, 1.3361764000728726, 1.3531675001140684, 1.3691734001040459, 1.3862153000663966, 1.4032076001167297, 1.4202493000775576, 1.4360820001456887, 1.4532046001404524, 1.4691994001623243]
S19;16;0;0;1;False;1000;True;;8;-46.16428512231223;drag;L;6.037847;-6.6047816;-47.57;8.95;1.7836150999646634;1.7837057998403907;1686307838.279401;1686307838.2913978;1686307839.0459886;1686307839.547103;1686307840.5283182;1686307842.3123941;[0.0, 0.0, 0.0, 0.0, 0.0, 0.0, 0.0, 0.0, 0.0, 0.0, 0.0, 0.0, 0.0, 0.0, 0.0, 0.0, 0.0, 0.0, 0.0, 0.14173351, 0.96378785, 1.8141888, 2.7212832, 3.1748307, 3.6567245, 3.911845, 4.081925, 4.2803516, 4.3937387, 4.5354724, 4.648859, 4.762246, 4.9039793, 4.9890194, 5.1024065, 5.1874466, 5.2724867, 5.3575263, 5.4425664, 5.4992604, 5.527607, 5.5843005, 5.6409936, 5.697687, 5.75438, 5.8394203, 5.896114, 5.924461, 5.981154, 6.0095005, 6.037847, 6.037847, 6.0661945, 6.094541, 6.094541, 6.1228876, 6.1228876, 6.1228876, 6.1228876, 6.1228876, 6.1228876, 6.1228876, 6.1228876, 6.1228876, 6.1228876, 6.1228876, 6.1228876, 6.1228876, 6.094541, 6.037847, 6.0095005, 5.981154, 5.9528074, 5.9528074, 5.924461, 5.896114, 5.896114, 5.896114, 5.896114, 5.896114, 5.896114, 5.896114, 5.896114, 5.924461, 5.924461, 5.9528074, 5.9528074, 5.9528074, 5.9528074, 5.981154, 5.981154, 5.981154, 6.0095005, 6.037847, 6.037847, 6.037847, 6.037847, 6.037847, 6.037847, 6.037847, 6.037847, 6.037847, 6.037847, 6.037847, 6.037847, 6.037847, 6.037847];[0.0, 0.0, 0.0, 0.0, 0.0, 0.0, 0.0, 0.0, 0.0, 0.0, 0.0, 0.0, 0.0, 0.0, 0.0, 0.0, 0.0, 0.0, 0.0, -0.14173351, -1.0771747, -1.8425356, -2.7212832, -3.2031772, -3.7417645, -4.1386185, -4.422086, -4.762246, -4.932326, -5.1874466, -5.41422, -5.612647, -5.9528074, -6.2079277, -6.4063544, -6.633128, -6.774862, -6.944942, -7.029982, -7.1150217, -7.1717157, -7.2000623, -7.2567554, -7.285102, -7.313449, -7.341796, -7.341796, -7.3701425, -7.3701425, -7.426836, -7.426836, -7.426836, -7.426836, -7.426836, -7.426836, -7.426836, -7.426836, -7.426836, -7.426836, -7.3984895, -7.3984895, -7.3984895, -7.3984895, -7.3701425, -7.3701425, -7.341796, -7.313449, -7.285102, -7.1717157, -7.0583286, -6.9732885, -6.9165955, -6.8599014, -6.831555, -6.8032084, -6.774862, -6.774862, -6.774862, -6.774862, -6.774862, -6.774862, -6.774862, -6.774862, -6.7465153, -6.7465153, -6.7181687, -6.7181687, -6.7181687, -6.7181687, -6.6898212, -6.6898212, -6.6614747, -6.6614747, -6.6614747, -6.6614747, -6.6047816, -6.6047816, -6.6047816, -6.6047816, -6.6047816, -6.6047816, -6.6047816, -6.6047816, -6.6047816, -6.6047816, -6.6047816, -6.6047816];[0.003598199924454093, 0.019649500027298927, 0.03460330003872514, 0.052615399938076735, 0.06862129992805421, 0.08563319989480078, 0.10265949997119606, 0.11956109991297126, 0.13562389998696744, 0.15262479986995459, 0.16871559992432594, 0.18566269986331463, 0.20267420005984604, 0.2195681999437511, 0.2355673999991268, 0.25268619996495545, 0.26868139998987317, 0.2856389000080526, 0.3015763000585139, 0.3206293999683112, 0.33569330000318587, 0.35364149999804795, 0.36868469999171793, 0.3867194999475032, 0.40365549991838634, 0.42059200000949204, 0.4357254998758435, 0.452644000062719, 0.4695555998478085, 0.48762369994074106, 0.5016733000520617, 0.5186001998372376, 0.5376015999354422, 0.5526536998804659, 0.5696894000284374, 0.5866759000346065, 0.6027142000384629, 0.6216640998609364, 0.6356524999719113, 0.6535765998996794, 0.6686583999544382, 0.6866706998553127, 0.7026688999030739, 0.7206263998523355, 0.7356648999266326, 0.755685199983418, 0.7697469999548048, 0.785706999944523, 0.8017114999238402, 0.8197293998673558, 0.8357364998664707, 0.8527228999882936, 0.8696989000309259, 0.885693300049752, 0.902736600022763, 0.9196401999797672, 0.9356877999380231, 0.9527004000265151, 0.9687190998811275, 0.9867755000013858, 1.0017595998942852, 1.0197188998572528, 1.0356997000053525, 1.0526958999689668, 1.068690799875185, 1.0876467998605222, 1.1025802998337895, 1.1187104999553412, 1.1356905000284314, 1.15467459987849, 1.1686787998769432, 1.1856203998904675, 1.2034571999683976, 1.2194665998686105, 1.2354349000379443, 1.2534755999222398, 1.2684549000114202, 1.2864273998420686, 1.3024364998564124, 1.319367199903354, 1.3354334000032395, 1.3524763998575509, 1.3684431000147015, 1.386497600004077, 1.402449799934402, 1.4194694999605417, 1.43547199992463, 1.4523519000504166, 1.4684540999587625, 1.4858798999339342, 1.5026479999069124, 1.5200225999578834, 1.5357096998486668, 1.5536423998419195, 1.5688446999993175, 1.586462799925357, 1.6017821000423282, 1.6188002999406308, 1.634804799919948, 1.6518252999521792, 1.6677844000514597, 1.6857636000495404, 1.7018195998389274, 1.7196601000614464, 1.7357477999757975, 1.7527725999243557, 1.768762799911201]
S19;17;0;0;1;False;3000;True;;8;-36.69117065342934;drag;L;5.4425664;-4.847286;-41.69;7.29;1.1344434001948684;1.1345673000905663;1686307843.0023355;1686307843.0073547;1686307843.7623458;1686307844.2631054;1686307847.262319;1686307848.397689;[0.0, 0.0, 0.0, 0.0, 0.0, 0.0, 0.0, 0.0, 0.0, 0.0, 0.0, 0.0, 0.0, 0.0, 0.0, 0.0, 0.0, 0.0, 0.0, 0.0, 0.0, 0.0, 0.0, 0.5102406, 0.9921345, 1.3606416, 1.8141888, 1.9559225, 2.1260026, 2.3244295, 2.466163, 2.6078966, 2.7496302, 2.8630168, 3.0614438, 3.2031772, 3.3732576, 3.4582977, 3.5716846, 3.6283777, 3.770111, 3.8834982, 4.1386185, 4.3086987, 4.4504323, 4.6772056, 4.762246, 4.875633, 5.017366, 5.130753, 5.2441397, 5.300833, 5.3575263, 5.3858733, 5.41422, 5.41422, 5.4425664, 5.4425664, 5.4425664, 5.4425664, 5.4425664, 5.4425664, 5.4425664, 5.4425664, 5.4425664, 5.4425664, 5.4425664, 5.4425664];[0.0, 0.0, 0.0, 0.0, 0.0, 0.0, 0.0, 0.0, 0.0, 0.0, 0.0, 0.0, 0.0, 0.0, 0.0, 0.0, 0.0, 0.0, 0.0, 0.0, 0.0, 0.0, 0.0, -0.56693405, -1.1338681, -1.6441087, -2.2677362, -2.4945097, -2.7212832, -2.9764037, -3.1748307, -3.316564, -3.514991, -3.6283777, -3.8268046, -3.968538, -4.1386185, -4.2236586, -4.2803516, -4.337045, -4.422086, -4.478779, -4.563819, -4.648859, -4.6772056, -4.7055526, -4.733899, -4.733899, -4.762246, -4.7905927, -4.818939, -4.818939, -4.847286, -4.847286, -4.847286, -4.847286, -4.847286, -4.847286, -4.847286, -4.847286, -4.847286, -4.847286, -4.847286, -4.847286, -4.847286, -4.847286, -4.847286, -4.847286];[0.0044957001227885485, 0.018536000046879053, 0.03451560018584132, 0.05050830007530749, 0.06853760010562837, 0.08429010002873838, 0.10130480001680553, 0.11731240013614297, 0.13428400014527142, 0.15029350016266108, 0.16831380012445152, 0.1833147001452744, 0.20135280000977218, 0.21731530013494194, 0.23428540001623333, 0.25030099996365607, 0.26820320007391274, 0.284179599955678, 0.30120970006100833, 0.31714590010233223, 0.3346751001663506, 0.3508886001072824, 0.3678806000389159, 0.387677000137046, 0.4028425000142306, 0.4177509001456201, 0.43671150016598403, 0.4518212000839412, 0.46786440000869334, 0.4849203999619931, 0.5028963000513613, 0.5198980001732707, 0.5358969001099467, 0.5518598000053316, 0.5688869000878185, 0.5838884999975562, 0.604774700012058, 0.6178566000889987, 0.6348725999705493, 0.6507717999629676, 0.6688528000377119, 0.6847904999740422, 0.7018798000644892, 0.7177514999639243, 0.7346557001583278, 0.7528288001194596, 0.7692778999917209, 0.7842310001142323, 0.7994590001180768, 0.8165647001005709, 0.8366038000676781, 0.8515882999636233, 0.868690500035882, 0.8846919999923557, 0.902498499955982, 0.9173745999578387, 0.9354302000720054, 0.9505432001315057, 0.9675142001360655, 0.9834485000465065, 1.001464300090447, 1.0169448000378907, 1.0339934001676738, 1.049985600169748, 1.0689626999665052, 1.084492500172928, 1.10105359996669, 1.117975400062278]
S19;18;0;0;1;False;3000;True;;8;-146.3666403511178;drag;L;-6.888248;-5.782727;-139.99;8.99;1.5502561000175774;1.550381900044158;1686307849.0849106;1686307849.0910375;1686307849.8451402;1686307850.3468788;1686307853.3459415;1686307854.8961291;[0.0, 0.0, 0.0, 0.0, 0.0, 0.0, 0.0, 0.0, 0.0, 0.0, 0.0, 0.0, 0.0, 0.0, 0.0, 0.0, 0.0, 0.0, 0.0, 0.0, 0.0, 0.0, 0.0, -0.9070944, -1.8141888, -2.211043, -2.466163, -2.6362433, -2.83467, -3.0330973, -3.2882173, -3.4866443, -3.770111, -4.025232, -4.252005, -4.5071254, -4.9890194, -5.3575263, -5.75438, -5.924461, -6.037847, -6.2079277, -6.321315, -6.434701, -6.5764346, -6.6614747, -6.7465153, -6.831555, -6.9165955, -6.9732885, -7.029982, -7.1150217, -7.2000623, -7.2567554, -7.285102, -7.313449, -7.341796, -7.3701425, -7.3701425, -7.3984895, -7.3984895, -7.426836, -7.426836, -7.426836, -7.426836, -7.426836, -7.426836, -7.426836, -7.426836, -7.426836, -7.3984895, -7.3701425, -7.313449, -7.313449, -7.228409, -7.1717157, -7.086675, -7.0583286, -7.029982, -7.0016356, -6.9165955, -6.888248, -6.888248, -6.888248, -6.888248, -6.888248, -6.888248, -6.888248, -6.888248, -6.888248, -6.888248, -6.888248, -6.888248];[0.0, 0.0, 0.0, 0.0, 0.0, 0.0, 0.0, 0.0, 0.0, 0.0, 0.0, 0.0, 0.0, 0.0, 0.0, 0.0, 0.0, 0.0, 0.0, 0.0, 0.0, 0.0, 0.0, -0.48189393, -1.0204812, -1.2756016, -1.4456817, -1.5590686, -1.7008021, -1.8708823, -2.0976558, -2.2677362, -2.57955, -2.7779768, -3.0330973, -3.2882173, -3.7417645, -4.025232, -4.365392, -4.478779, -4.5921655, -4.7055526, -4.762246, -4.847286, -4.960673, -5.017366, -5.0740595, -5.1591, -5.1874466, -5.2441397, -5.300833, -5.3575263, -5.41422, -5.4425664, -5.4992604, -5.527607, -5.5559535, -5.5843005, -5.5843005, -5.6409936, -5.66934, -5.697687, -5.75438, -5.782727, -5.782727, -5.8677673, -5.8677673, -5.896114, -5.9528074, -5.9528074, -5.9528074, -5.9528074, -5.9528074, -5.9528074, -5.9528074, -5.924461, -5.924461, -5.896114, -5.8677673, -5.8394203, -5.811074, -5.782727, -5.782727, -5.782727, -5.782727, -5.782727, -5.782727, -5.782727, -5.782727, -5.782727, -5.782727, -5.782727, -5.782727];[0.004245100077241659, 0.01719249994494021, 0.03418239997699857, 0.050168999936431646, 0.06832970003597438, 0.08428040007129312, 0.10122899990528822, 0.11723940004594624, 0.13525900011882186, 0.15124969999305904, 0.16822610003873706, 0.18427220010198653, 0.2011637999676168, 0.21623010002076626, 0.23420680011622608, 0.25026579992845654, 0.2682213999796659, 0.2842465001158416, 0.30124490009620786, 0.3171188998967409, 0.33423539996147156, 0.35021480009891093, 0.3692346999887377, 0.38424120005220175, 0.40306599996984005, 0.4171835999004543, 0.4361024000681937, 0.45123600005172193, 0.46819859999231994, 0.4841523999348283, 0.5011629001237452, 0.5172381000593305, 0.5371528000105172, 0.5521595999598503, 0.5681674000807106, 0.5841562000568956, 0.60120870009996, 0.6172104999423027, 0.6341564001049846, 0.6501752999611199, 0.6681421999819577, 0.6851951000280678, 0.7005821000784636, 0.7175634999293834, 0.7346898000687361, 0.7507597000803798, 0.7687317999079823, 0.7847029999829829, 0.8047166001051664, 0.8187015999574214, 0.8356017000041902, 0.8513563999440521, 0.8684227000921965, 0.8844419000670314, 0.9024594000075012, 0.9174746000207961, 0.9364420999772847, 0.9514168000314385, 0.9684399000834674, 0.9874291000887752, 1.0014432000461966, 1.0174751000013202, 1.0344348000362515, 1.0504685000050813, 1.0684150999877602, 1.0834123000968248, 1.101433499949053, 1.117413700092584, 1.1344616001006216, 1.1504826000891626, 1.168482300126925, 1.1844985000789165, 1.20431450009346, 1.217309100087732, 1.2343657999299467, 1.2503963001072407, 1.2674422001000494, 1.2834324000868946, 1.3014209000393748, 1.317433200078085, 1.3364053999539465, 1.350481400033459, 1.3674393999390304, 1.3834162999410182, 1.4014471000991762, 1.417442600009963, 1.434429399902001, 1.4504537000320852, 1.4684258000925183, 1.4844231000170112, 1.5014907999429852, 1.5175060001201928, 1.5354015999473631]
S19;19;0;0;1;False;1000;True;;8;133.46466731385007;drag;L;-6.8599014;5.32918;142.16;8.69;1.367065800121054;1.3671768999192864;1686307855.697109;1686307855.7072084;1686307856.460659;1686307856.9628885;1686307857.9438138;1686307859.3108842;[0.0, 0.0, 0.0, 0.0, 0.0, 0.0, 0.0, 0.0, 0.0, 0.0, 0.0, 0.0, 0.0, 0.0, 0.0, 0.0, 0.0, 0.0, 0.0, 0.0, 0.0, 0.0, 0.0, 0.0, 0.0, 0.0, 0.0, 0.0, 0.0, 0.0, -0.19842692, -0.7086675, -1.2472548, -1.5874153, -1.899229, -2.2393894, -2.4378164, -2.7212832, -2.9197102, -3.1181371, -3.4582977, -3.713418, -3.911845, -4.1386185, -4.2803516, -4.422086, -4.4504323, -4.5071254, -4.620512, -4.7055526, -4.847286, -5.0740595, -5.215793, -5.4425664, -5.5559535, -5.697687, -5.8394203, -5.9528074, -6.037847, -6.151234, -6.2079277, -6.378008, -6.491395, -6.5764346, -6.6898212, -6.7181687, -6.774862, -6.831555, -6.8599014, -6.8599014, -6.8599014, -6.8599014, -6.8599014, -6.8599014, -6.8599014, -6.8599014, -6.8599014, -6.8599014, -6.8599014, -6.8599014, -6.8599014, -6.8599014];[0.0, 0.0, 0.0, 0.0, 0.0, 0.0, 0.0, 0.0, 0.0, 0.0, 0.0, 0.0, 0.0, 0.0, 0.0, 0.0, 0.0, 0.0, 0.0, 0.0, 0.0, 0.0, 0.0, 0.0, 0.0, 0.0, 0.0, 0.0, 0.0, 0.0, 0.2267736, 0.85040104, 1.417335, 1.7291489, 2.012616, 2.2960827, 2.466163, 2.66459, 2.8630168, 3.0330973, 3.2882173, 3.4866443, 3.6567245, 3.911845, 4.025232, 4.1386185, 4.166965, 4.1953115, 4.252005, 4.3086987, 4.365392, 4.478779, 4.5354724, 4.620512, 4.6772056, 4.7055526, 4.733899, 4.762246, 4.7905927, 4.847286, 4.875633, 4.932326, 5.017366, 5.045713, 5.1024065, 5.130753, 5.1591, 5.215793, 5.2441397, 5.2724867, 5.300833, 5.32918, 5.32918, 5.32918, 5.32918, 5.32918, 5.32918, 5.32918, 5.32918, 5.32918, 5.32918, 5.32918];[0.003656799905002117, 0.018817099975422025, 0.03489709994755685, 0.05281869997270405, 0.06889469991438091, 0.0859141000546515, 0.10193470004014671, 0.11989469989202917, 0.13495040009729564, 0.152902000118047, 0.16896059992723167, 0.18593890010379255, 0.20191089995205402, 0.2195305998902768, 0.23555260011926293, 0.25253190007060766, 0.26830939995124936, 0.2872858999762684, 0.30258210003376007, 0.31946170004084706, 0.3354362999089062, 0.35250700009055436, 0.3684523000847548, 0.38647460006177425, 0.4024704999756068, 0.41900449991226196, 0.435952499974519, 0.4529995999764651, 0.46905869990587234, 0.4865077999420464, 0.5035369999241084, 0.5215151999145746, 0.5354979999829084, 0.5534705000463873, 0.5683987000957131, 0.5864965999498963, 0.6024786001071334, 0.6205825998913497, 0.6364780999720097, 0.65251459996216, 0.6713700999971479, 0.6867370998952538, 0.7015887999441475, 0.7196128000505269, 0.7356549999676645, 0.7537207000423223, 0.7697024000808597, 0.7858593999408185, 0.8037972999736667, 0.8203946999274194, 0.8353436000179499, 0.8534053999464959, 0.8694027999881655, 0.8873560999054462, 0.9033900999929756, 0.9208031999878585, 0.9368237999733537, 0.9537458999548107, 0.969754199963063, 0.9877665000967681, 1.0036939999554306, 1.0206911999266595, 1.0357079000677913, 1.052933800034225, 1.069762400118634, 1.0867139999754727, 1.1027732000220567, 1.1206944999285042, 1.1357038000132889, 1.1537099000997841, 1.1697307999711484, 1.186766100116074, 1.2016875999979675, 1.2197279001120478, 1.2347136999014765, 1.2528113001026213, 1.2687540999613702, 1.285735100042075, 1.3017359001096338, 1.31914889998734, 1.3350144000723958, 1.3531343000940979]
S19;20;0;0;1;False;1000;True;;8;-131.97362621204795;drag;L;-6.4063544;-5.1591;-141.16;8.23;1.451222199946642;1.4513077000156045;1686307860.1804154;1686307860.1904514;1686307860.9442015;1686307861.4447508;1686307862.4271362;1686307863.87797;[0.0, 0.0, 0.0, 0.0, 0.0, 0.0, 0.0, 0.0, 0.0, 0.0, 0.0, 0.0, 0.0, 0.0, 0.0, 0.0, 0.0, 0.0, 0.0, 0.0, 0.0, 0.0, 0.0, 0.0, 0.0, 0.0, 0.0, 0.0, 0.0, 0.0, -0.48189393, -0.79370767, -1.1055214, -1.5023751, -1.7008021, -1.9559225, -2.0976558, -2.2393894, -2.4378164, -2.57955, -2.83467, -3.0897903, -3.316564, -3.6567245, -3.770111, -3.8834982, -4.0535784, -4.166965, -4.252005, -4.4504323, -4.5921655, -4.7905927, -4.9039793, -5.0740595, -5.215793, -5.32918, -5.4992604, -5.66934, -5.75438, -5.8677673, -5.896114, -5.9528074, -5.9528074, -6.0095005, -6.0095005, -6.0661945, -6.0661945, -6.1228876, -6.151234, -6.1795807, -6.2079277, -6.264621, -6.292968, -6.3496614, -6.378008, -6.378008, -6.4063544, -6.4063544, -6.4063544, -6.4063544, -6.4063544, -6.4063544, -6.4063544, -6.4063544, -6.4063544, -6.4063544, -6.4063544];[0.0, 0.0, 0.0, 0.0, 0.0, 0.0, 0.0, 0.0, 0.0, 0.0, 0.0, 0.0, 0.0, 0.0, 0.0, 0.0, 0.0, 0.0, 0.0, 0.0, 0.0, 0.0, 0.0, 0.0, 0.0, 0.0, 0.0, 0.0, 0.0, 0.0, -0.5102406, -0.8220543, -1.1338681, -1.5307219, -1.7291489, -1.984269, -2.1543493, -2.2677362, -2.4945097, -2.66459, -2.9197102, -3.1181371, -3.3449106, -3.5716846, -3.6850712, -3.798458, -3.911845, -3.996885, -4.081925, -4.252005, -4.337045, -4.5071254, -4.5921655, -4.762246, -4.847286, -4.960673, -5.045713, -5.1874466, -5.2441397, -5.300833, -5.32918, -5.3575263, -5.3575263, -5.3575263, -5.3575263, -5.3575263, -5.3575263, -5.3575263, -5.32918, -5.300833, -5.2724867, -5.2441397, -5.215793, -5.1874466, -5.1874466, -5.1591, -5.1591, -5.1591, -5.1591, -5.1591, -5.1591, -5.1591, -5.1591, -5.1591, -5.1591, -5.1591, -5.1591];[0.004140600096434355, 0.01942700007930398, 0.03540010005235672, 0.05242469999939203, 0.06946959998458624, 0.08651129994541407, 0.10241220006719232, 0.1194361001253128, 0.13543469994328916, 0.15113999997265637, 0.16929710004478693, 0.18633570009842515, 0.20236400002613664, 0.2193193999119103, 0.2352314000017941, 0.253551899921149, 0.2685684999451041, 0.2865752999205142, 0.3023705999366939, 0.3194124000146985, 0.33542100014165044, 0.352451000129804, 0.370371799916029, 0.38641709997318685, 0.4022908001206815, 0.41935180011205375, 0.435332499910146, 0.4523698000703007, 0.46836609998717904, 0.48643000004813075, 0.5042226000223309, 0.520291700027883, 0.53838189993985, 0.5544501000549644, 0.5704173999838531, 0.5871796000283211, 0.603366200113669, 0.6194603000767529, 0.6373455999419093, 0.6544564000796527, 0.672961900010705, 0.6861050000879914, 0.7021038001403213, 0.721069399965927, 0.7371150001417845, 0.7537279999814928, 0.7696593999862671, 0.787716600112617, 0.803858800092712, 0.8207497000694275, 0.8366928000468761, 0.8546947999857366, 0.8693310001399368, 0.8898344000335783, 0.9028008999302983, 0.9209903001319617, 0.9358184000011533, 0.9528574999421835, 0.9690048000775278, 0.9879467999562621, 1.0030153000261635, 1.0199047999922186, 1.0349282999522984, 1.0539703001268208, 1.0689314999617636, 1.086955799954012, 1.101983099943027, 1.1227971999906003, 1.1359449001029134, 1.1528972999658436, 1.169020100031048, 1.1870140000246465, 1.203947100089863, 1.2209248000290245, 1.2359478001017123, 1.2529075001366436, 1.2689696999732405, 1.2859338000416756, 1.3019777999725193, 1.3199235999491066, 1.3349649999290705, 1.3530119000934064, 1.3689898999873549, 1.3859387000557035, 1.4019395001232624, 1.419886900112033, 1.4359349999576807]
